Length [m]	OTDR [V]	Brillouin intensity [V]	Fitted Frequency [GHz]	Temperature [”]	Compensated Strain [レュ]	Uncompensated Strain [レュ]
0.51	0.007209	0.042976	10.508395	-149.322013	2170.113032	-1685.316766
1.02	0.007317	0.046750	10.481352	-125.889223	1007.009945	-2280.256191
1.53	0.007255	0.049933	10.461751	-91.366230	-239.767453	-2711.487983
2.04	0.007314	0.052621	10.449543	-55.144933	-1355.106162	-2980.047393
2.55	0.007268	0.054832	10.441258	-31.232102	-2096.660143	-3162.327983
3.06	0.007218	0.056692	10.437180	-18.394935	-2486.215797	-3252.041281
3.57	0.007187	0.058233	10.435532	-21.995068	-2441.351751	-3288.298992
4.08	0.007179	0.059522	10.434705	-22.297099	-2453.472837	-3306.493546
4.59	0.007154	0.060563	10.434825	-11.857144	-2691.022174	-3303.846590
5.10	0.007198	0.061418	10.434827	9.279482	-3177.548677	-3303.816636
5.61	0.007206	0.062074	10.434785	25.026280	-3540.992087	-3304.730011
6.12	0.007221	0.062563	10.434224	32.953244	-3736.415943	-3317.081030
6.63	0.007187	0.062872	10.433827	23.521408	-3528.452220	-3325.813009
7.14	0.007173	0.063091	10.433968	10.860374	-3233.745107	-3322.708576
7.65	0.007141	0.063230	10.433755	1.327360	-3019.196354	-3327.380761
8.16	0.007155	0.063353	10.434452	7.115692	-3136.368438	-3312.048328
8.67	0.007177	0.063447	10.435600	20.772845	-3424.279753	-3286.796871
9.18	0.007241	0.063528	10.435593	39.575233	-3857.277532	-3286.962119
9.69	0.007239	0.063517	10.435201	49.606030	-4097.223375	-3295.585734
10.20	0.007241	0.063452	10.435153	51.817650	-4149.232157	-3296.633165
10.71	0.007183	0.063333	10.435195	44.061518	-3969.711898	-3295.701445
11.22	0.007151	0.063230	10.434282	40.411166	-3906.736806	-3315.785670
11.73	0.007118	0.063162	10.433900	41.169790	-3933.021816	-3324.200785
12.24	0.007143	0.063178	10.433234	50.946856	-4173.445523	-3338.851797
12.75	0.007164	0.063232	10.432354	56.294374	-4316.840814	-3358.213466
13.26	0.007209	0.063319	10.432871	58.131306	-4347.193606	-3346.830753
13.77	0.007194	0.063348	10.434084	49.192731	-4113.460419	-3320.149777
14.28	0.007174	0.063381	10.434609	41.346537	-3920.743740	-3308.607547
14.79	0.007120	0.063404	10.435050	33.150865	-3721.904710	-3298.899231
15.30	0.007106	0.063461	10.434792	30.614431	-3669.476959	-3304.584583
15.81	0.007085	0.063526	10.434146	28.840537	-3643.527503	-3318.783446
16.32	0.007094	0.063602	10.433646	30.047711	-3682.858654	-3329.793801
16.83	0.007057	0.063618	10.433335	26.493660	-3608.221758	-3336.639176
17.34	0.006990	0.063589	10.433301	26.231042	-3602.952271	-3337.379292
17.85	0.006852	0.063489	10.434164	26.260880	-3583.737229	-3318.394765
18.36	0.006735	0.063390	10.434807	30.189974	-3659.340757	-3304.236077
18.87	0.006591	0.063287	10.434413	32.074315	-3711.814461	-3312.913589
19.38	0.006525	0.063231	10.435138	35.616708	-3776.650229	-3296.974872
19.89	0.006471	0.063199	10.435803	37.154520	-3796.699250	-3282.331578
20.40	0.006469	0.063186	10.436293	37.783867	-3799.887179	-3271.552998
20.91	0.006428	0.063145	10.436880	39.830306	-3833.454683	-3258.636344
21.42	0.006402	0.063093	10.437748	47.446370	-3988.750109	-3239.535586
21.93	0.006337	0.063000	10.437943	45.752090	-3945.251223	-3235.245722
22.44	0.006303	0.062925	10.438158	50.724325	-4054.767970	-3230.531153
22.95	0.006267	0.062857	10.437847	44.871166	-3927.184722	-3237.355837
23.46	0.006280	0.062818	10.438005	38.885240	-3785.767171	-3233.899279
23.97	0.006294	0.062794	10.438618	37.734085	-3745.111793	-3220.395618
24.48	0.006330	0.062788	10.438797	33.750031	-3649.290339	-3216.475185
24.99	0.006329	0.062771	10.437506	33.314379	-3669.034316	-3244.875347
25.50	0.006341	0.062759	10.437195	37.197942	-3765.586937	-3251.699897
26.02	0.006300	0.062750	10.437400	35.506564	-3721.930074	-3247.195639
26.53	0.006313	0.062773	10.437934	34.672649	-3690.417528	-3235.447240
27.04	0.006290	0.062806	10.437685	33.145259	-3661.007110	-3240.931784
27.55	0.006326	0.062877	10.437490	31.190655	-3620.514634	-3245.226128
28.06	0.006336	0.062936	10.437719	28.961923	-3563.930873	-3240.190356
28.57	0.006360	0.062973	10.437473	34.491317	-3696.875947	-3245.589750
29.08	0.006343	0.062968	10.437721	34.308109	-3686.952816	-3240.147006
29.59	0.006342	0.062944	10.437305	40.882420	-3847.880882	-3249.294658
30.10	0.006298	0.062886	10.436857	38.444017	-3802.066170	-3259.135598
30.61	0.006299	0.062858	10.437600	36.558203	-3741.538191	-3242.807437
31.12	0.006285	0.062839	10.437793	37.733247	-3764.135513	-3238.560853
31.63	0.006313	0.062865	10.438080	36.573928	-3730.816256	-3232.234430
32.14	0.006315	0.062883	10.438679	34.283971	-3664.302457	-3219.070745
32.65	0.006335	0.062884	10.439376	40.697761	-3795.850829	-3203.717762
33.16	0.006311	0.062857	10.439552	35.292709	-3667.376745	-3199.852890
33.67	0.006319	0.062820	10.440212	39.174135	-3741.507876	-3185.336395
34.18	0.006289	0.062759	10.440820	36.927419	-3675.764485	-3171.958113
34.69	0.006307	0.062751	10.440982	37.941220	-3695.366212	-3168.394665
35.20	0.006311	0.062746	10.441138	32.401291	-3564.247007	-3164.968302
35.71	0.006345	0.062803	10.441015	35.870925	-3646.944043	-3167.665236
36.22	0.006347	0.062812	10.441966	32.917174	-3557.019777	-3146.746169
36.73	0.006363	0.062838	10.441685	35.405433	-3620.776380	-3152.925313
37.24	0.006335	0.062795	10.441748	37.729564	-3672.835568	-3151.550235
37.75	0.006333	0.062762	10.442040	39.154997	-3698.904810	-3145.117357
38.26	0.006310	0.062684	10.442563	39.105773	-3685.709189	-3133.610885
38.77	0.006327	0.062643	10.442923	40.187190	-3702.299738	-3125.690321
39.28	0.006323	0.062568	10.442038	37.437949	-3659.419977	-3145.156484
39.79	0.006347	0.062522	10.441900	36.719887	-3646.072319	-3148.191708
40.30	0.006328	0.062449	10.441768	35.501567	-3621.082625	-3151.106472
40.81	0.006341	0.062402	10.441912	37.024691	-3652.815245	-3147.930750
41.32	0.006305	0.062345	10.442884	37.399537	-3639.028687	-3126.548602
41.83	0.006311	0.062320	10.443335	38.932109	-3663.920120	-3116.639582
42.34	0.006291	0.062302	10.443442	38.083843	-3641.925772	-3114.285762
42.85	0.006312	0.062318	10.444272	37.017593	-3598.236087	-3096.023286
43.36	0.006313	0.062335	10.444329	33.827664	-3523.472628	-3094.752312
43.87	0.006331	0.062347	10.444322	33.984800	-3527.267265	-3094.921564
44.38	0.006321	0.062341	10.444180	33.854128	-3527.538538	-3098.049686
44.89	0.006321	0.062346	10.444183	36.868650	-3596.846922	-3097.968718
45.40	0.006305	0.062347	10.445223	38.591291	-3612.511551	-3075.084552
45.91	0.006319	0.062368	10.445511	40.455600	-3648.785436	-3068.748838
46.42	0.006309	0.062384	10.445211	39.190251	-3626.582009	-3075.354139
46.93	0.006327	0.062416	10.444986	38.303737	-3611.363272	-3080.303479
47.44	0.006318	0.062418	10.445385	35.981023	-3548.693747	-3071.526175
47.95	0.006332	0.062426	10.446022	36.763855	-3552.037651	-3057.526087
48.46	0.006308	0.062418	10.446100	37.778021	-3573.567171	-3055.793563
48.97	0.006305	0.062420	10.446421	40.628080	-3631.770754	-3048.731037
49.48	0.006284	0.062415	10.451435	41.370523	-3533.236976	-2938.436196
49.99	0.006295	0.062380	10.474354	42.258793	-3025.096380	-2434.213140
50.50	0.006286	0.062262	10.510224	41.079968	-2170.680354	-1645.066669
51.01	0.006307	0.062025	10.541151	41.609220	-1469.601254	-964.682143
51.53	0.006299	0.061579	10.557922	42.470846	-1102.639257	-595.715148
52.04	0.006312	0.060930	10.562832	46.066789	-1072.170733	-487.689296
52.55	0.006299	0.060085	10.565364	47.349292	-1043.313466	-432.000287
53.06	0.006309	0.059129	10.566764	49.512771	-1060.828198	-401.200769
53.57	0.006290	0.058121	10.568012	46.699674	-967.280831	-373.737040
54.08	0.006307	0.057152	10.568779	43.498704	-875.914835	-356.871267
54.59	0.006295	0.056265	10.569201	37.662646	-731.827103	-347.576744
55.10	0.006316	0.055509	10.569469	34.979791	-663.891532	-341.684296
55.61	0.006299	0.054874	10.569827	32.213442	-591.948490	-333.802525
56.12	0.006312	0.054383	10.569762	32.679123	-604.166482	-335.231660
56.63	0.006295	0.054001	10.569633	32.018658	-591.936231	-338.068019
57.14	0.006304	0.053721	10.570135	32.230179	-585.243395	-327.038985
57.65	0.006280	0.053503	10.570678	29.951317	-520.250130	-315.082141
58.16	0.006289	0.053354	10.570923	28.110621	-472.230023	-309.694566
58.67	0.006272	0.053225	10.570928	25.160749	-404.208434	-309.583380
59.18	0.006291	0.053127	10.570855	24.533996	-391.460052	-311.185236
59.69	0.006280	0.053054	10.570458	23.358623	-373.553189	-319.913304
60.20	0.006294	0.053003	10.570581	25.391684	-417.518982	-317.209392
60.71	0.006278	0.052975	10.570994	24.393786	-385.042414	-308.142240
61.22	0.006290	0.052948	10.570767	25.581192	-417.607413	-313.132424
61.73	0.006270	0.052920	10.570442	23.273452	-371.975606	-320.278672
62.24	0.006294	0.052909	10.570788	22.657577	-349.809456	-312.658000
62.75	0.006271	0.052896	10.570923	21.212401	-313.426362	-309.685987
63.26	0.006292	0.052916	10.571012	22.316589	-336.788723	-307.725067
63.77	0.006277	0.052934	10.571248	22.471917	-334.937610	-302.548492
64.28	0.006320	0.052969	10.571423	25.226009	-394.295099	-298.693980
64.79	0.006393	0.052988	10.571150	25.309772	-402.521090	-304.701486
65.30	0.006687	0.052998	10.570805	26.192657	-430.803684	-312.293501
65.81	0.007267	0.052974	10.570826	24.395236	-388.950277	-311.838121
66.32	0.008325	0.052940	10.571529	24.068535	-365.201211	-296.357660
66.83	0.009722	0.052893	10.571666	22.580231	-327.788579	-293.350583
67.34	0.011214	0.052864	10.571365	23.749793	-361.661118	-299.979862
67.85	0.012313	0.052821	10.571614	23.006953	-338.796950	-294.481307
68.36	0.012797	0.052798	10.572182	24.601723	-362.429695	-282.005851
68.87	0.012584	0.052780	10.572274	23.444968	-333.669565	-279.972100
69.38	0.011887	0.052761	10.572297	23.081872	-324.784707	-279.469863
69.89	0.010916	0.052744	10.572289	21.012565	-277.322667	-279.634591
70.40	0.009950	0.052739	10.571589	20.876904	-290.344419	-295.035028
70.91	0.009085	0.052721	10.571362	19.824943	-271.363448	-300.028536
71.42	0.008431	0.052713	10.571736	21.357215	-298.028957	-291.818404
71.93	0.007915	0.052679	10.572225	21.261665	-284.551482	-281.060321
72.44	0.007575	0.052661	10.572594	22.459423	-303.600760	-272.930476
72.95	0.007306	0.052650	10.572989	21.421221	-270.601701	-264.249928
73.46	0.007134	0.052653	10.572881	21.672605	-278.867929	-266.615101
73.97	0.006986	0.052651	10.572715	20.285157	-250.768436	-270.277208
74.48	0.006903	0.052661	10.572234	21.393714	-287.380641	-280.859456
74.99	0.006808	0.052662	10.572173	20.666726	-272.048338	-282.197521
75.50	0.006763	0.052664	10.572534	22.755892	-311.799426	-274.241180
76.01	0.006701	0.052655	10.573038	22.337027	-290.556241	-263.174885
76.52	0.006674	0.052665	10.573155	23.571441	-316.256859	-260.584868
77.03	0.006640	0.052671	10.573117	22.423601	-290.716318	-261.426530
77.55	0.006638	0.052696	10.573405	22.514197	-286.149755	-255.081105
78.06	0.006613	0.052720	10.573191	21.650217	-271.209644	-259.801430
78.57	0.006610	0.052740	10.572973	22.350043	-292.345771	-264.596098
79.08	0.006591	0.052747	10.572896	22.380565	-294.832837	-266.298299
79.59	0.006602	0.052749	10.572828	23.340900	-318.494157	-267.781373
80.10	0.006580	0.052739	10.572709	22.478883	-301.397134	-270.401109
80.61	0.006599	0.052739	10.573234	23.065119	-302.775098	-258.842638
81.12	0.006589	0.052739	10.573756	22.001031	-266.261497	-247.377993
81.63	0.006609	0.052749	10.573797	22.586021	-278.770213	-246.464565
82.14	0.006605	0.052762	10.573958	21.899453	-259.258956	-242.928739
82.65	0.006630	0.052790	10.574276	23.459455	-287.824920	-235.922535
83.16	0.006616	0.052814	10.574373	23.776804	-292.895642	-233.790991
83.67	0.006629	0.052842	10.574483	25.165103	-322.321614	-231.375518
84.18	0.006615	0.052834	10.574493	24.482757	-306.374953	-231.147276
84.69	0.006628	0.052844	10.574221	25.080963	-326.431104	-237.143171
85.20	0.006613	0.052837	10.574107	23.805333	-299.687912	-239.643716
85.71	0.006636	0.052863	10.574078	24.432339	-314.803738	-240.294631
86.22	0.006633	0.052898	10.574621	23.945800	-291.074475	-228.342872
86.73	0.006621	0.052914	10.574820	24.821952	-306.655412	-223.966559
87.24	0.006577	0.052914	10.574480	24.219535	-300.624493	-231.441841
87.75	0.006517	0.052878	10.574152	25.062248	-327.585913	-238.655712
88.26	0.006425	0.052796	10.574260	23.532235	-289.875394	-236.280346
88.77	0.006373	0.052713	10.574753	23.655143	-281.322912	-225.423220
89.28	0.006391	0.052693	10.575132	22.300794	-241.415000	-217.094421
89.79	0.006419	0.052766	10.575171	23.775343	-274.471868	-216.248556
90.30	0.006453	0.052842	10.574175	23.578454	-292.889050	-238.140194
90.81	0.006470	0.052857	10.573748	24.665162	-327.762328	-247.543438
91.32	0.006491	0.052776	10.574101	23.592177	-294.911210	-239.767794
91.83	0.006520	0.052697	10.574303	24.437886	-309.740655	-235.343137
92.34	0.006520	0.052637	10.574490	23.507301	-283.991573	-231.215255
92.85	0.006520	0.052600	10.574512	24.186983	-299.125932	-230.727161
93.36	0.006520	0.052564	10.574273	22.869940	-274.324657	-235.989475
93.87	0.006525	0.052538	10.574649	23.315744	-275.910130	-227.712646
94.38	0.006550	0.052506	10.574694	22.302448	-251.548058	-226.724077
94.89	0.006550	0.052458	10.574639	22.868063	-265.833621	-227.931049
95.40	0.006553	0.052385	10.574813	21.721915	-235.439728	-224.105936
95.91	0.006561	0.052336	10.575015	22.490476	-248.477736	-219.666461
96.42	0.006561	0.052317	10.574732	21.017433	-221.105840	-225.902186
96.93	0.006561	0.052348	10.574674	22.516971	-256.957334	-227.173394
97.44	0.006561	0.052371	10.574545	21.493685	-236.375101	-230.009791
97.95	0.006562	0.052371	10.573467	22.353314	-281.021501	-253.721996
98.46	0.006562	0.052315	10.571620	19.481546	-257.525167	-294.368631
98.97	0.006562	0.052246	10.568908	14.943234	-215.590188	-354.021490
99.48	0.006562	0.052218	10.564607	-0.743309	46.305907	-448.651509
99.99	0.006562	0.052283	10.558676	-27.330606	521.544453	-579.138022
100.50	0.006562	0.052409	10.549949	-66.169757	1214.345547	-771.123705
101.01	0.006561	0.052594	10.540306	-104.456593	1873.291539	-983.275886
101.52	0.006555	0.052777	10.533563	-134.862038	2417.718272	-1131.604510
102.03	0.006555	0.052944	10.529659	-152.441117	2732.340971	-1217.495753
102.54	0.006555	0.053088	10.528021	-158.987752	2845.252580	-1253.543521
103.06	0.006555	0.053239	10.527262	-155.424582	2745.720242	-1270.245799
103.57	0.006555	0.053394	10.526536	-144.135161	2469.111577	-1286.204693
104.08	0.006555	0.053554	10.526041	-126.229925	2045.523157	-1297.094487
104.59	0.006555	0.053666	10.526570	-105.169678	1572.915973	-1285.463994
105.10	0.006555	0.053743	10.528806	-82.609397	1105.147832	-1236.278923
105.61	0.006555	0.053770	10.532382	-62.611386	727.296636	-1157.585410
106.12	0.006555	0.053771	10.535274	-44.636116	380.197055	-1093.974269
106.63	0.006561	0.053767	10.537303	-31.473125	123.978438	-1049.342066
107.14	0.006562	0.053798	10.538088	-20.001977	-121.964660	-1032.058427
107.65	0.006562	0.053849	10.539219	-12.035844	-279.262743	-1007.181003
108.16	0.006561	0.053937	10.539957	-4.579715	-433.871508	-990.937156
108.67	0.006557	0.054008	10.539697	-0.122704	-542.470836	-996.661042
109.18	0.006557	0.054082	10.540235	5.086506	-649.987649	-984.835070
109.69	0.006557	0.054149	10.540798	7.802820	-699.531279	-972.448631
110.20	0.006557	0.054222	10.540154	11.482193	-799.069046	-986.604443
110.71	0.006557	0.054299	10.540437	13.375915	-836.149896	-980.392620
111.22	0.006557	0.054398	10.540806	15.847078	-884.508844	-972.259274
111.73	0.006555	0.054492	10.541149	16.524724	-892.211658	-964.726881
112.24	0.006553	0.054578	10.541726	18.434645	-922.874680	-952.037380
112.75	0.006551	0.054620	10.541399	18.869644	-940.413941	-959.216212
113.26	0.006552	0.054634	10.541006	19.985978	-975.192836	-967.878867
113.77	0.006552	0.054604	10.540922	19.215833	-959.383886	-969.709915
114.28	0.006553	0.054564	10.541506	20.129093	-966.949447	-956.872861
114.79	0.006553	0.054514	10.541689	18.802677	-932.192562	-952.844282
115.30	0.006553	0.054470	10.541304	19.035821	-946.433837	-961.309614
115.81	0.006553	0.054416	10.541145	17.604180	-917.150409	-964.812781
116.32	0.006553	0.054377	10.541091	17.585839	-917.966501	-965.993993
116.83	0.006552	0.054349	10.541423	16.048834	-874.937950	-958.699267
117.34	0.006553	0.054351	10.541245	16.788793	-896.071210	-962.609961
117.85	0.006553	0.054368	10.540889	16.231928	-891.460159	-970.439407
118.36	0.006555	0.054400	10.540838	17.179001	-914.439370	-971.563033
118.87	0.006555	0.054439	10.540869	16.742788	-903.677743	-970.876077
119.38	0.006553	0.054474	10.540883	17.768416	-926.977685	-970.580694
119.89	0.006552	0.054506	10.541389	16.725478	-891.293750	-959.443025
120.40	0.006552	0.054541	10.541439	17.141473	-899.721346	-958.347492
120.91	0.006552	0.054543	10.541237	17.791455	-919.328848	-962.778507
121.42	0.006552	0.054537	10.541860	20.107015	-958.270798	-949.079059
121.93	0.006552	0.054503	10.542271	23.200597	-1019.997022	-940.029379
122.44	0.006552	0.054458	10.542029	28.073712	-1137.770554	-945.367521
122.95	0.006552	0.054416	10.541595	30.810965	-1210.773552	-954.899307
123.46	0.006552	0.054409	10.541650	29.692007	-1183.769084	-953.710308
123.97	0.006551	0.054430	10.541719	28.200292	-1147.817854	-952.172176
124.48	0.006547	0.054471	10.541887	26.582838	-1106.713796	-948.479783
124.99	0.006547	0.054497	10.542280	25.791065	-1079.427626	-939.837568
125.50	0.006546	0.054515	10.542070	24.717546	-1059.566127	-944.464528
126.01	0.006542	0.054492	10.541469	22.975775	-1033.325539	-957.680297
126.52	0.006540	0.054476	10.542389	22.865451	-1009.558951	-937.431778
127.03	0.006535	0.054450	10.543194	22.696555	-987.119747	-919.735617
127.54	0.006533	0.054451	10.542886	22.705091	-994.414758	-926.506934
128.05	0.006530	0.054440	10.542578	22.367470	-993.747307	-933.283927
128.56	0.006527	0.054436	10.542505	20.961245	-963.050606	-934.880881
129.08	0.006525	0.054397	10.542628	20.695824	-954.106921	-932.177719
129.59	0.006566	0.054351	10.542597	20.229789	-944.109120	-932.874228
130.10	0.006538	0.054287	10.542539	19.368765	-925.623587	-934.147633
130.61	0.006544	0.054235	10.542864	19.024293	-910.194568	-926.993932
131.12	0.006535	0.054191	10.543129	18.739503	-897.516387	-921.153714
131.63	0.006552	0.054168	10.543230	18.583074	-891.586292	-918.931941
132.14	0.006548	0.054145	10.543034	18.349048	-890.732366	-923.256246
132.65	0.006562	0.054137	10.543753	18.292426	-872.848864	-907.440420
133.16	0.006545	0.054123	10.544309	18.203461	-857.980103	-895.210582
133.67	0.006553	0.054124	10.543773	18.208737	-870.458299	-906.997729
134.18	0.006534	0.054123	10.543292	18.204764	-881.466104	-917.585376
134.69	0.006545	0.054139	10.543406	18.306685	-881.183954	-915.078187
135.20	0.006539	0.054151	10.543764	18.472464	-876.739525	-907.198351
135.71	0.006563	0.054178	10.544212	18.967031	-877.793025	-897.343307
136.22	0.006585	0.054167	10.544125	18.898758	-878.219320	-899.249137
136.73	0.006932	0.054171	10.543530	18.924621	-892.529034	-912.331334
137.24	0.009488	0.054159	10.543025	18.844690	-902.354720	-923.459282
137.75	0.021269	0.054166	10.543339	18.887792	-896.084821	-916.531931
138.26	0.057226	0.054183	10.543497	18.999120	-895.016441	-913.068186
138.77	0.140859	0.054219	10.542707	19.239865	-918.773716	-930.443954
139.28	0.296918	0.054250	10.542606	19.444772	-925.823715	-932.669531
139.79	0.527384	0.054279	10.542924	19.634522	-922.861943	-925.677635
140.30	0.790308	0.054283	10.542598	19.660849	-930.990140	-932.853067
140.81	1.011945	0.054276	10.542078	19.295510	-934.566436	-944.286838
141.32	1.129674	0.054244	10.541637	19.009145	-938.146228	-953.989789
141.83	1.124872	0.054216	10.542209	18.825728	-920.718106	-941.392583
142.34	1.019816	0.054171	10.542729	18.605308	-903.656091	-929.957136
142.85	0.856539	0.054144	10.543332	18.651301	-890.818687	-916.701544
143.36	0.676650	0.054131	10.544140	18.563980	-870.158363	-898.911009
143.87	0.511244	0.054131	10.543602	18.565913	-882.630634	-910.765919
144.38	0.375514	0.054118	10.542987	18.478309	-894.793574	-924.291874
144.89	0.271584	0.054109	10.542518	18.419940	-904.270618	-934.613770
145.40	0.194637	0.054081	10.542040	18.238027	-911.107594	-945.130130
145.91	0.138574	0.054051	10.541706	18.128028	-916.258102	-952.458654
146.42	0.097874	0.054003	10.541886	17.895951	-906.775293	-948.509031
146.93	0.068289	0.053968	10.542303	17.817869	-895.349721	-939.324685
147.44	0.046922	0.053940	10.542465	17.563406	-885.757287	-935.762070
147.95	0.031744	0.053923	10.542489	17.447944	-882.546486	-935.234636
148.46	0.020827	0.053900	10.541969	17.218138	-889.258116	-946.683119
148.97	0.013147	0.053895	10.541216	17.187575	-905.920015	-963.248111
149.48	0.007497	0.053877	10.541205	17.064662	-903.335604	-963.481818
149.99	0.003122	0.053874	10.541800	17.045516	-889.185062	-950.403966
150.50	-0.000441	0.053865	10.542283	16.984775	-876.645574	-939.776268
151.01	-0.003381	0.053854	10.541837	16.991323	-887.081570	-949.587427
151.52	-0.005777	0.053833	10.541479	16.777336	-890.417696	-957.468629
152.03	-0.007588	0.053798	10.541121	16.542951	-893.261354	-965.327972
152.54	-0.008794	0.053764	10.540380	16.235768	-903.286605	-981.636402
153.05	-0.009331	0.053742	10.540240	16.103718	-903.486052	-984.726286
153.56	-0.009196	0.053727	10.540486	16.078788	-897.233273	-979.309154
154.07	-0.008396	0.053738	10.540726	16.228943	-895.160760	-974.034991
154.59	-0.007031	0.053759	10.540538	16.368083	-902.684862	-978.156937
155.10	-0.005230	0.053808	10.540327	16.687371	-914.900509	-982.798402
155.61	-0.003161	0.053865	10.539747	17.067814	-937.048766	-995.571751
156.12	-0.001030	0.053941	10.539933	17.566990	-944.238929	-991.469310
156.63	0.000958	0.053998	10.540615	17.944365	-937.195170	-976.463599
157.14	0.002627	0.054060	10.540808	18.351029	-942.116388	-972.228213
157.65	0.003769	0.054095	10.540663	18.585114	-950.847897	-975.417090
158.16	0.004345	0.054110	10.540370	18.753307	-961.470821	-981.857060
158.67	0.004250	0.054090	10.540362	18.801097	-962.747187	-982.025203
159.18	0.003553	0.054054	10.539889	18.580609	-968.589648	-992.439963
159.69	0.002284	0.054000	10.540220	18.270147	-953.809137	-985.158046
160.20	0.000636	0.053961	10.540773	18.221248	-939.940028	-973.001995
160.71	-0.001253	0.053925	10.541190	18.108742	-927.723291	-963.818845
161.22	-0.003160	0.053916	10.541560	18.327902	-924.236808	-955.680636
161.73	-0.004896	0.053911	10.541342	18.394494	-930.800318	-960.479340
162.24	-0.006295	0.053934	10.541051	18.705828	-944.668601	-966.871923
162.75	-0.007214	0.053951	10.540844	19.003053	-956.283164	-971.424478
163.26	-0.007588	0.053971	10.540808	19.214370	-961.994278	-972.232112
163.77	-0.007383	0.053963	10.541199	16.957409	-901.012062	-963.620497
164.28	-0.006649	0.053954	10.541304	18.413223	-932.099654	-961.307521
164.79	-0.005473	0.053919	10.541429	17.863539	-916.572950	-958.566783
165.30	-0.003983	0.053898	10.541661	18.208058	-919.155824	-953.465460
165.81	-0.002350	0.053871	10.540782	17.081893	-913.498936	-972.798302
166.32	-0.000735	0.053864	10.540221	17.296095	-931.359429	-985.131954
166.83	0.000697	0.053859	10.540719	16.507394	-901.728832	-974.185905
167.34	0.001831	0.053882	10.541417	17.533416	-909.247174	-958.827717
167.85	0.002537	0.053907	10.541461	17.305810	-902.988381	-957.855338
168.36	0.002828	0.053939	10.541603	18.553705	-928.434121	-954.726159
168.87	0.002641	0.053967	10.541456	18.126281	-921.985889	-957.960775
169.38	0.002092	0.053998	10.541270	18.628726	-937.850058	-962.060728
169.89	0.001210	0.054004	10.540957	17.392544	-916.614341	-968.948654
170.40	0.000149	0.054013	10.540663	16.276834	-897.699549	-975.405136
170.91	-0.000990	0.053994	10.540549	-1.594341	-488.949664	-977.921958
171.42	-0.002084	0.053986	10.540931	-92.355648	1609.146317	-969.525923
171.93	-0.003002	0.053978	10.540940	-228.599217	4745.636284	-969.325981
172.44	-0.003692	0.053989	10.540609	-297.519019	6324.510044	-976.610487
172.95	-0.004081	0.053972	10.540844	-321.737429	6887.433028	-971.436999
173.46	-0.004131	0.053885	10.542398	-330.455346	7123.957236	-937.248341
173.97	-0.003982	0.053561	10.543584	-333.909981	7230.845979	-911.145463
174.48	-0.003446	0.052767	10.544004	-335.413908	7275.152458	-901.905376
174.99	-0.002763	0.051147	10.544557	-336.115240	7304.042775	-889.747001
175.50	-0.002159	0.048450	10.544925	-336.446132	7320.146422	-881.651574
176.01	-0.001262	0.044588	10.545922	-336.586618	7346.383984	-859.708295
176.52	-0.000652	0.039769	10.548653	-336.614382	7409.990174	-799.643691
177.03	-0.000168	0.034353	10.550163	-336.566375	7443.728333	-766.406519
177.54	0.000364	0.028770	10.555842	-336.462128	7572.304450	-641.467981
178.05	0.000487	0.023371	10.567823	-336.323996	7845.425728	-377.903040
178.56	0.000397	0.018447	10.562194	-336.176560	7712.224521	-501.726847
179.07	0.000377	0.014126	10.562906	-336.051744	7725.760525	-486.074016
179.58	0.000034	0.010498	10.567524	-335.968499	7830.353350	-384.474449
180.09	-0.000331	0.007538	10.566566	-335.948695	7807.801558	-405.551855
180.61	-0.000616	0.005202	10.569987	-336.002678	7887.943969	-330.288981
181.12	-0.001055	0.003387	10.569977	-336.155998	7891.247588	-330.504322
181.63	-0.001327	0.002010	10.569983	-336.448164	7898.105307	-330.378258
182.14	-0.001524	0.000971	10.569929	-336.977956	7909.070083	-331.552394
182.65	-0.001620	0.000215	10.569969	-337.852786	7930.130900	-330.672377
183.16	-0.001691	-0.000337	10.569964	-339.408118	7965.808309	-330.792386
183.67	-0.001639	-0.000713	10.569963	-342.412498	8034.939313	-330.819852
184.18	-0.001518	-0.000975	10.569966	-351.800834	8251.130360	-330.748533
184.69	-0.001443	-0.001144	10.569966	-226.261654	5361.263771	-330.746246
185.20	-0.001344	-0.001261	10.569966	-322.174426	7569.142384	-330.746813
185.71	-0.001099	-0.001324	10.569966	-328.390432	7712.229910	-330.749500
186.22	-0.001112	-0.001354	10.569966	-330.588265	7762.817289	-330.755209
186.73	-0.001049	-0.001354	10.569966	-331.646014	7787.166706	-330.754810
187.24	-0.000842	-0.001363	10.569966	-331.985505	7794.978699	-330.757667
187.75	-0.001051	-0.001348	10.569966	-331.963831	7794.479707	-330.757722
188.26	-0.000970	-0.001335	10.569966	-331.428490	7782.156271	-330.757784
188.77	-0.000952	-0.001303	10.569966	-330.289598	7755.939313	-330.757832
189.28	-0.000959	-0.001272	10.569966	-327.787184	7698.338194	-330.754398
189.79	-0.000935	-0.001235	10.569966	-321.418027	7551.722173	-330.754605
190.30	-0.000840	-0.001221	10.569966	-287.057730	6760.759211	-330.755253
190.81	-0.000830	-0.001200	10.569966	-392.425442	9186.288785	-330.754396
191.32	-0.000664	-0.001186	10.569966	-357.815830	8389.587652	-330.754126
191.83	-0.000601	-0.001159	10.569966	-351.589498	8246.259065	-330.754659
192.34	-0.000503	-0.001120	10.569966	-349.440179	8196.782301	-330.754825
192.85	-0.000386	-0.001084	10.569966	-349.326550	8194.166710	-330.754721
193.36	-0.000472	-0.001070	10.569966	-351.318077	8240.010916	-330.754772
193.87	-0.000331	-0.001067	10.569966	-358.497127	8405.269380	-330.755544
194.38	-0.000552	-0.001081	10.569966	-411.773976	9631.684385	-330.755381
194.89	-0.000517	-0.001089	10.569966	-300.737805	7075.671034	-330.754137
195.40	-0.000784	-0.001106	10.569966	-323.166734	7591.976865	-330.754552
195.91	-0.000806	-0.001107	10.569966	-328.522414	7715.262525	-330.754806
196.42	-0.000984	-0.001113	10.569966	-330.656933	7764.398201	-330.755014
196.93	-0.001130	-0.001116	10.569966	-331.612763	7786.401148	-330.754937
197.44	-0.001096	-0.001123	10.569966	-331.901334	7793.043990	-330.754912
197.95	-0.001252	-0.001110	10.569966	-331.801495	7790.745706	-330.754926
198.46	-0.001166	-0.001091	10.569966	-331.206399	7777.047571	-330.754209
198.97	-0.001117	-0.001056	10.569966	-329.962541	7748.414412	-330.754163
199.48	-0.001006	-0.001024	10.569966	-327.183983	7684.452257	-330.754840
199.99	-0.000884	-0.000980	10.569966	-320.274258	7525.392390	-330.755193
200.50	-0.000692	-0.000950	10.569966	-282.397822	6653.490221	-330.754771
201.01	-0.000586	-0.000920	10.569966	-395.344513	9253.484089	-330.755085
201.52	-0.000393	-0.000909	10.569966	-359.770651	8434.585374	-330.755626
202.03	-0.000298	-0.000896	10.569966	-353.558401	8291.580918	-330.756205
202.54	-0.000231	-0.000902	10.569966	-352.092751	8257.841830	-330.756506
203.05	-0.000145	-0.000913	10.569965	-353.245537	8284.374904	-330.760004
203.56	-0.000264	-0.000933	10.569965	-357.571692	8383.961252	-330.760255
204.07	-0.000202	-0.000957	10.569965	-372.497789	8727.554757	-330.760390
204.58	-0.000431	-0.000996	10.569965	-627.545862	14598.674799	-330.759770
205.09	-0.000427	-0.001022	10.569965	-293.683259	6913.270038	-330.761532
205.60	-0.000660	-0.001058	10.569966	-316.348610	7435.021447	-330.758872
206.12	-0.000710	-0.001078	10.569965	-322.778883	7583.043918	-330.759083
206.63	-0.000837	-0.001095	10.569965	-325.475199	7645.110639	-330.760561
207.14	-0.000936	-0.001105	10.569965	-326.593140	7670.845248	-330.760561
207.65	-0.000921	-0.001110	10.569966	-326.681924	7672.890714	-330.758952
208.16	-0.000995	-0.001094	10.569965	-326.424030	7666.953919	-330.759115
208.67	-0.000909	-0.001063	10.569965	-324.962945	7633.318058	-330.761198
209.18	-0.000873	-0.001003	10.569966	-322.602318	7578.981175	-330.757437
209.69	-0.000751	-0.000953	10.569966	-319.223479	7501.201465	-330.757440
210.20	-0.000686	-0.000900	10.569966	-307.492682	7231.162483	-330.757464
210.71	-0.000535	-0.000882	10.569966	-279.785892	6593.362183	-330.756979
211.22	-0.000481	-0.000862	10.569966	-116.253354	2828.899194	-330.756881
211.73	-0.000410	-0.000870	10.569966	-441.694636	10320.457115	-330.746438
212.24	-0.000280	-0.000868	10.569966	-415.388128	9714.890475	-330.746277
212.75	-0.000338	-0.000876	10.569966	-433.620903	10134.602568	-330.746432
213.26	-0.000261	-0.000869	10.569966	-437.945350	10234.149834	-330.746452
213.77	-0.000324	-0.000856	10.569966	-1414.214254	32707.525971	-330.746505
214.28	-0.000357	-0.000841	10.569966	-228.454021	5411.731203	-330.746357
214.79	-0.000458	-0.000806	10.569966	-281.770615	6639.060978	-330.746341
215.30	-0.000445	-0.000800	10.569966	-305.540547	7186.236656	-330.746356
215.81	-0.000601	-0.000789	10.569966	-312.576805	7348.208976	-330.746289
216.32	-0.000607	-0.000809	10.569966	-315.334454	7411.689304	-330.746115
216.83	-0.000644	-0.000814	10.569966	-316.574427	7440.233361	-330.745826
217.34	-0.000716	-0.000831	10.569966	-317.055601	7451.309553	-330.746074
217.85	-0.000683	-0.000828	10.569966	-316.465884	7437.734458	-330.746084
218.36	-0.000703	-0.000824	10.569966	-314.827647	7400.022827	-330.746059
218.87	-0.000681	-0.000809	10.569966	-314.080173	7382.815916	-330.746363
219.38	-0.000647	-0.000772	10.569966	-313.485780	7369.133185	-330.746372
219.89	-0.000596	-0.000732	10.569966	-309.522204	7277.892725	-330.746658
220.40	-0.000553	-0.000692	10.569967	-311.390160	7320.906920	-330.732835
220.91	-0.000514	-0.000676	10.569967	-310.438837	7299.007439	-330.733167
221.42	-0.000455	-0.000683	10.569967	-303.253575	7133.605183	-330.733146
221.93	-0.000411	-0.000739	10.569967	-307.900275	7240.571522	-330.732299
222.44	-0.000410	-0.000797	10.569967	-302.777873	7122.655193	-330.732681
222.95	-0.000386	-0.000863	10.569967	-299.116634	7038.374307	-330.733068
223.46	-0.000349	-0.000901	10.569967	-297.684642	7005.410088	-330.733318
223.97	-0.000440	-0.000928	10.569967	-295.375534	6952.253204	-330.735237
224.48	-0.000369	-0.000928	10.569966	-290.546973	6841.095175	-330.741152
224.99	-0.000450	-0.000911	10.569966	-290.828735	6847.576913	-330.745279
225.50	-0.000477	-0.000868	10.569966	-281.749053	6638.565731	-330.745283
226.01	-0.000485	-0.000822	10.569966	-279.127171	6578.210907	-330.745287
226.52	-0.000511	-0.000757	10.569966	-273.216864	6442.157655	-330.745288
227.03	-0.000549	-0.000709	10.569966	-258.930288	6113.285569	-330.745288
227.54	-0.000530	-0.000655	10.569966	-278.352279	6560.373136	-330.745307
228.05	-0.000570	-0.000640	10.569966	-254.698899	6015.879921	-330.745786
228.56	-0.000527	-0.000626	10.569966	-289.322429	6812.901709	-330.745795
229.07	-0.000545	-0.000640	10.569966	-284.715994	6706.863107	-330.745839
229.58	-0.000521	-0.000647	10.569966	-302.634894	7119.345875	-330.749834
230.09	-0.000497	-0.000662	10.569966	-302.802666	7123.207889	-330.749876
230.60	-0.000477	-0.000650	10.569966	-309.769936	7283.604768	-330.737746
231.11	-0.000448	-0.000641	10.569966	-313.780792	7375.934001	-330.737090
231.62	-0.000414	-0.000610	10.569966	-314.234654	7386.379031	-330.739675
232.14	-0.000408	-0.000604	10.569966	-317.461549	7460.660893	-330.739834
232.65	-0.000389	-0.000601	10.569966	-316.017074	7427.408597	-330.740755
233.16	-0.000385	-0.000637	10.569966	-313.667887	7373.330147	-330.741688
233.67	-0.000362	-0.000672	10.569966	-309.414660	7275.421658	-330.742313
234.18	-0.000400	-0.000719	10.569966	-303.154752	7131.320541	-330.742487
234.69	-0.000384	-0.000722	10.569967	-293.212746	6902.465657	-330.736099
235.20	-0.000405	-0.000738	10.569966	-283.831603	6686.513145	-330.737810
235.71	-0.000425	-0.000720	10.569966	-259.108898	6117.404914	-330.737843
236.22	-0.000428	-0.000713	10.569966	-234.861299	5559.229203	-330.741912
236.73	-0.000437	-0.000696	10.569967	-208.243212	4946.509154	-330.723585
237.24	-0.000469	-0.000695	10.569967	-130.717004	3161.882066	-330.723882
237.75	-0.000430	-0.000686	10.569967	-225.915811	5353.325741	-330.724171
238.26	-0.000486	-0.000700	10.569967	-188.615814	4494.694252	-330.722566
238.77	-0.000435	-0.000676	10.569967	-270.579507	6381.471527	-330.721518
239.28	-0.000458	-0.000674	10.569967	-270.088852	6370.177253	-330.721097
239.79	-0.000434	-0.000636	10.569967	-296.654877	6981.717090	-330.722026
240.30	-0.000424	-0.000617	10.569967	-300.737228	7075.691057	-330.722358
240.81	-0.000413	-0.000605	10.569967	-307.066795	7221.395778	-330.722113
241.32	-0.000400	-0.000627	10.569967	-309.361361	7274.215491	-330.722510
241.83	-0.000372	-0.000640	10.569967	-308.287670	7249.497740	-330.724172
242.34	-0.000371	-0.000670	10.569967	-309.183065	7270.104877	-330.728516
242.85	-0.000350	-0.000680	10.569967	-305.989146	7196.581848	-330.728628
243.36	-0.000361	-0.000684	10.569967	-304.443805	7161.010128	-330.727180
243.87	-0.000348	-0.000659	10.569967	-300.380197	7067.467754	-330.726725
244.38	-0.000364	-0.000650	10.569967	-297.373644	6998.257284	-330.727335
244.89	-0.000359	-0.000626	10.569967	-287.788895	6777.617123	-330.729746
245.40	-0.000385	-0.000627	10.569967	-281.894079	6641.920470	-330.729749
245.91	-0.000388	-0.000607	10.569967	-274.335909	6467.933978	-330.729751
246.42	-0.000403	-0.000598	10.569967	-245.852337	5812.258831	-330.723125
246.93	-0.000386	-0.000575	10.569967	-264.813646	6248.740100	-330.724626
247.44	-0.000420	-0.000553	10.569967	-246.697689	5831.715991	-330.725560
247.95	-0.000389	-0.000520	10.569967	-269.045012	6346.143652	-330.725638
248.46	-0.000406	-0.000498	10.569967	-277.906803	6550.139556	-330.725154
248.97	-0.000403	-0.000478	10.569967	-293.231708	6902.914395	-330.724423
249.48	-0.000394	-0.000473	10.569967	-292.397790	6883.717497	-330.724786
249.99	-0.000373	-0.000470	10.569967	-304.454258	7161.251121	-330.726840
250.50	-0.000384	-0.000483	10.569966	-303.905510	7148.595201	-330.749661
251.01	-0.000349	-0.000482	10.569966	-305.958173	7195.846813	-330.749661
251.52	-0.000357	-0.000507	10.569966	-307.710418	7236.182782	-330.749755
252.03	-0.000348	-0.000511	10.569967	-305.933758	7195.306371	-330.729058
252.54	-0.000341	-0.000553	10.569967	-304.311566	7157.963307	-330.729782
253.05	-0.000338	-0.000573	10.569967	-301.923747	7102.997929	-330.728461
253.56	-0.000354	-0.000603	10.569967	-298.010764	7012.922623	-330.728243
254.07	-0.000327	-0.000603	10.569967	-294.588059	6934.132337	-330.728982
254.58	-0.000360	-0.000608	10.569967	-290.793016	6846.771915	-330.728826
255.09	-0.000345	-0.000578	10.569967	-289.665866	6820.825481	-330.728670
255.60	-0.000362	-0.000569	10.569967	-284.221958	6695.508617	-330.728633
256.11	-0.000360	-0.000545	10.569967	-280.934163	6619.824774	-330.728566
256.62	-0.000377	-0.000539	10.569967	-281.527122	6633.474216	-330.728820
257.13	-0.000363	-0.000525	10.569967	-279.540637	6587.745683	-330.729136
257.65	-0.000372	-0.000530	10.569967	-272.529895	6426.361314	-330.728636
258.16	-0.000359	-0.000521	10.569967	-287.077860	6761.250104	-330.729003
258.67	-0.000375	-0.000524	10.569967	-276.979681	6528.792938	-330.729527
259.18	-0.000338	-0.000511	10.569967	-289.216017	6810.469877	-330.728895
259.69	-0.000363	-0.000529	10.569967	-290.440898	6838.665968	-330.729119
260.20	-0.000345	-0.000521	10.569967	-291.870651	6871.579054	-330.728498
260.71	-0.000333	-0.000540	10.569967	-292.593410	6888.216833	-330.728388
261.22	-0.000339	-0.000557	10.569967	-294.449724	6930.948236	-330.728683
261.73	-0.000336	-0.000593	10.569967	-289.910700	6826.461337	-330.728786
262.24	-0.000312	-0.000614	10.569967	-291.726329	6868.256348	-330.728926
262.75	-0.000338	-0.000657	10.569967	-284.401166	6699.634240	-330.728337
263.26	-0.000313	-0.000664	10.569967	-285.637162	6728.086030	-330.728723
263.77	-0.000329	-0.000671	10.569967	-282.605881	6658.307932	-330.727817
264.28	-0.000326	-0.000653	10.569967	-281.519548	6633.297771	-330.730822
264.79	-0.000331	-0.000628	10.569967	-281.457079	6631.859745	-330.730824
265.30	-0.000327	-0.000602	10.569967	-280.229483	6603.608118	-330.723950
265.81	-0.000338	-0.000594	10.569967	-276.291128	6512.946228	-330.726148
266.32	-0.000323	-0.000575	10.569967	-277.301850	6536.214391	-330.724541
266.83	-0.000350	-0.000572	10.569967	-274.712555	6476.609776	-330.724474
267.34	-0.000323	-0.000533	10.569967	-278.418984	6561.931639	-330.723374
267.85	-0.000340	-0.000489	10.569967	-279.887258	6595.730505	-330.723668
268.36	-0.000316	-0.000423	10.569967	-292.621034	6888.856367	-330.724904
268.87	-0.000334	-0.000376	10.569967	-295.978585	6966.134341	-330.736083
269.38	-0.000304	-0.000327	10.569966	-303.439976	7137.891990	-330.737055
269.89	-0.000318	-0.000325	10.569966	-305.205803	7178.540676	-330.737087
270.40	-0.000304	-0.000326	10.569966	-305.363901	7182.180045	-330.737097
270.91	-0.000303	-0.000357	10.569966	-302.931283	7126.181825	-330.737265
271.42	-0.000291	-0.000378	10.569966	-303.474034	7138.675758	-330.737277
271.93	-0.000300	-0.000406	10.569967	-297.522474	7001.673861	-330.736350
272.44	-0.000285	-0.000431	10.569967	-299.952146	7057.604043	-330.736375
272.95	-0.000303	-0.000462	10.569967	-292.398144	6883.714085	-330.735811
273.46	-0.000290	-0.000479	10.569966	-293.140009	6900.790111	-330.737212
273.97	-0.000299	-0.000511	10.569967	-287.472844	6770.336264	-330.734963
274.48	-0.000286	-0.000520	10.569967	-285.342695	6721.299743	-330.736122
274.99	-0.000291	-0.000536	10.569967	-282.292014	6651.075142	-330.735134
275.50	-0.000287	-0.000526	10.569967	-281.496400	6632.760763	-330.734775
276.01	-0.000294	-0.000535	10.569967	-276.224814	6511.410571	-330.734853
276.52	-0.000275	-0.000531	10.569967	-276.365971	6514.660075	-330.734741
277.03	-0.000296	-0.000529	10.569967	-272.901473	6434.909910	-330.733405
277.54	-0.000273	-0.000525	10.569967	-275.404662	6492.531054	-330.734757
278.05	-0.000293	-0.000542	10.569967	-271.007976	6391.322763	-330.732922
278.56	-0.000281	-0.000553	10.569967	-272.679179	6429.793882	-330.732355
279.07	-0.000295	-0.000589	10.569967	-267.421770	6308.769413	-330.733048
279.58	-0.000277	-0.000618	10.569967	-268.985255	6344.759929	-330.733393
280.09	-0.000288	-0.000649	10.569967	-266.057189	6277.355767	-330.734440
280.60	-0.000270	-0.000655	10.569967	-268.031369	6322.801730	-330.733455
281.11	-0.000275	-0.000653	10.569967	-265.168055	6256.889538	-330.733149
281.62	-0.000266	-0.000625	10.569967	-273.997933	6460.148663	-330.734721
282.13	-0.000277	-0.000615	10.569967	-269.909997	6366.043795	-330.736607
282.64	-0.000259	-0.000605	10.569966	-273.911466	6458.154878	-330.737915
283.15	-0.000277	-0.000616	10.569966	-272.253868	6419.994744	-330.740580
283.67	-0.000260	-0.000624	10.569966	-269.849314	6364.638306	-330.744803
284.18	-0.000278	-0.000643	10.569966	-263.815771	6225.748151	-330.744861
284.69	-0.000263	-0.000633	10.569966	-266.920120	6297.209193	-330.744866
285.20	-0.000278	-0.000635	10.569967	-259.576374	6128.172688	-330.731499
285.71	-0.000255	-0.000624	10.569967	-262.703782	6200.164227	-330.731823
286.22	-0.000274	-0.000627	10.569967	-260.541401	6150.387177	-330.731599
286.73	-0.000255	-0.000617	10.569967	-260.166374	6141.754453	-330.731344
287.24	-0.000267	-0.000617	10.569967	-259.285155	6121.469298	-330.731149
287.75	-0.000252	-0.000590	10.569967	-266.368085	6284.515472	-330.731587
288.26	-0.000267	-0.000554	10.569967	-265.085168	6254.982723	-330.731992
288.77	-0.000244	-0.000497	10.569967	-278.599253	6566.073256	-330.731132
289.28	-0.000262	-0.000459	10.569967	-280.720894	6614.912378	-330.731425
289.79	-0.000242	-0.000404	10.569967	-290.101406	6830.848584	-330.731402
290.30	-0.000258	-0.000374	10.569967	-293.341155	6905.426664	-330.731245
290.81	-0.000248	-0.000341	10.569967	-299.183420	7039.913016	-330.731808
291.32	-0.000257	-0.000333	10.569967	-298.702072	7028.832853	-330.731528
291.83	-0.000247	-0.000301	10.569967	-303.310761	7134.923463	-330.731354
292.34	-0.000258	-0.000286	10.569967	-303.878809	7147.999596	-330.731507
292.85	-0.000248	-0.000252	10.569967	-309.221465	7270.985822	-330.731385
293.36	-0.000256	-0.000243	10.569967	-307.230471	7225.153529	-330.731658
293.87	-0.000248	-0.000226	10.569967	-311.430918	7321.844062	-330.733888
294.38	-0.000261	-0.000246	10.569967	-307.539327	7232.260220	-330.734600
294.89	-0.000246	-0.000258	10.569967	-304.757086	7168.213487	-330.735062
295.40	-0.000256	-0.000299	10.569967	-300.115161	7061.357967	-330.735071
295.91	-0.000247	-0.000338	10.569967	-294.805207	6939.124432	-330.735272
296.42	-0.000253	-0.000395	10.569966	-283.497254	6678.816025	-330.738315
296.93	-0.000234	-0.000445	10.569966	-281.350216	6629.391810	-330.738440
297.44	-0.000251	-0.000493	10.569966	-270.243906	6373.728340	-330.738446
297.95	-0.000225	-0.000519	10.569967	-270.111580	6370.687391	-330.733544
298.46	-0.000242	-0.000534	10.569967	-267.520774	6311.046881	-330.734541
298.97	-0.000236	-0.000518	10.569967	-270.743306	6385.227225	-330.735714
299.48	-0.000243	-0.000512	10.569967	-270.758614	6385.579579	-330.735748
299.99	-0.000231	-0.000474	10.569967	-277.764740	6546.858216	-330.735733
300.50	-0.000252	-0.000453	10.569967	-277.528693	6541.424897	-330.735354
301.01	-0.000227	-0.000419	10.569967	-286.509530	6748.161189	-330.734885
301.52	-0.000243	-0.000399	10.569967	-284.912944	6711.407382	-330.735789
302.03	-0.000223	-0.000369	10.569967	-291.371712	6860.086748	-330.735080
302.54	-0.000238	-0.000358	10.569967	-289.416131	6815.069719	-330.735285
303.05	-0.000232	-0.000339	10.569967	-294.448476	6930.911689	-330.736140
303.56	-0.000246	-0.000344	10.569967	-289.334408	6813.187282	-330.736446
304.07	-0.000233	-0.000336	10.569967	-292.677143	6890.136686	-330.735683
304.58	-0.000247	-0.000347	10.569967	-288.977360	6804.969012	-330.735623
305.09	-0.000231	-0.000347	10.569967	-288.728292	6799.235672	-330.735498
305.60	-0.000243	-0.000376	10.569967	-282.460545	6654.954603	-330.735200
306.11	-0.000230	-0.000391	10.569967	-281.866320	6641.275849	-330.735100
306.62	-0.000240	-0.000424	10.569967	-274.022844	6460.721638	-330.735179
307.13	-0.000227	-0.000428	10.569966	-277.346467	6537.228372	-330.737014
307.64	-0.000242	-0.000424	10.569966	-274.971573	6482.548074	-330.747554
308.15	-0.000217	-0.000382	10.569966	-282.994569	6667.243470	-330.739197
308.66	-0.000228	-0.000346	10.569966	-285.978588	6735.935071	-330.738716
309.18	-0.000209	-0.000304	10.569966	-293.170797	6901.497368	-330.738612
309.69	-0.000211	-0.000273	10.569966	-297.151923	6993.141358	-330.738775
310.20	-0.000203	-0.000248	10.569966	-301.893576	7102.292398	-330.738951
310.71	-0.000218	-0.000255	10.569966	-298.153291	7016.192689	-330.738605
311.22	-0.000202	-0.000267	10.569966	-299.228034	7040.932903	-330.738590
311.73	-0.000226	-0.000308	10.569966	-289.550547	6818.160233	-330.738825
312.24	-0.000205	-0.000334	10.569966	-289.077678	6807.274898	-330.738866
312.75	-0.000223	-0.000389	10.569966	-278.468620	6563.057835	-330.739033
313.26	-0.000208	-0.000428	10.569966	-275.587683	6496.739340	-330.739320
313.77	-0.000221	-0.000478	10.569966	-263.778456	6224.895482	-330.738850
314.28	-0.000207	-0.000506	10.569966	-262.271953	6190.216633	-330.738530
314.79	-0.000224	-0.000509	10.569966	-256.915365	6066.909543	-330.738777
315.30	-0.000213	-0.000478	10.569966	-263.118175	6209.695791	-330.739087
315.81	-0.000224	-0.000438	10.569966	-267.042465	6300.031361	-330.739327
316.32	-0.000211	-0.000373	10.569966	-280.145485	6601.658514	-330.739217
316.83	-0.000222	-0.000339	10.569966	-281.589981	6634.910659	-330.738891
317.34	-0.000204	-0.000307	10.569966	-290.432889	6838.471486	-330.738781
317.85	-0.000216	-0.000302	10.569966	-288.171981	6786.426149	-330.738782
318.36	-0.000195	-0.000299	10.569966	-291.800238	6869.946986	-330.739166
318.87	-0.000215	-0.000319	10.569966	-285.855838	6733.108779	-330.739309
319.38	-0.000188	-0.000325	10.569966	-287.726330	6776.167016	-330.739171
319.89	-0.000206	-0.000352	10.569966	-278.556902	6565.090082	-330.739016
320.40	-0.000194	-0.000375	10.569966	-279.293690	6582.050633	-330.739070
320.91	-0.000205	-0.000425	10.569966	-266.360516	6284.332954	-330.739489
321.42	-0.000189	-0.000446	10.569966	-266.049686	6277.177748	-330.739484
321.93	-0.000204	-0.000457	10.569966	-259.855376	6134.586919	-330.739415
322.44	-0.000192	-0.000437	10.569966	-267.514593	6310.899825	-330.739087
322.95	-0.000206	-0.000419	10.569966	-264.156320	6233.593885	-330.738757
323.46	-0.000187	-0.000390	10.569966	-273.937651	6458.756794	-330.738738
323.97	-0.000212	-0.000386	10.569966	-269.375528	6353.737844	-330.739159
324.48	-0.000187	-0.000366	10.569966	-277.011972	6529.525363	-330.739919
324.99	-0.000206	-0.000356	10.569966	-276.336067	6513.968864	-330.737434
325.50	-0.000196	-0.000335	10.569966	-281.796980	6639.677252	-330.737415
326.01	-0.000203	-0.000329	10.569966	-280.609977	6612.351587	-330.738614
326.52	-0.000184	-0.000315	10.569966	-285.480474	6724.469589	-330.737815
327.03	-0.000201	-0.000327	10.569966	-281.201491	6625.969469	-330.737248
327.54	-0.000183	-0.000337	10.569967	-281.332096	6628.976570	-330.736643
328.05	-0.000202	-0.000379	10.569967	-272.354727	6422.320435	-330.736807
328.56	-0.000188	-0.000399	10.569966	-272.285129	6420.717733	-330.737361
329.07	-0.000204	-0.000447	10.569966	-259.702439	6131.067163	-330.738665
329.58	-0.000186	-0.000470	10.569966	-259.020621	6115.372050	-330.738555
330.09	-0.000199	-0.000491	10.569966	-252.417401	5963.366882	-330.739791
330.60	-0.000185	-0.000483	10.569966	-255.856193	6042.527758	-330.738784
331.11	-0.000196	-0.000470	10.569966	-251.569421	5943.847988	-330.738538
331.62	-0.000184	-0.000441	10.569966	-262.447145	6194.249950	-330.738085
332.13	-0.000201	-0.000438	10.569966	-254.054573	6001.055702	-330.738190
332.64	-0.000184	-0.000425	10.569966	-262.506231	6195.610039	-330.738134
333.15	-0.000196	-0.000427	10.569966	-260.129322	6140.894470	-330.738071
333.66	-0.000181	-0.000408	10.569966	-265.785085	6271.088207	-330.738066
334.17	-0.000190	-0.000402	10.569966	-262.990561	6206.759098	-330.738199
334.69	-0.000175	-0.000390	10.569966	-271.538830	6403.537065	-330.738432
335.20	-0.000193	-0.000392	10.569966	-263.664126	6222.263875	-330.738621
335.71	-0.000174	-0.000386	10.569966	-269.466915	6355.842194	-330.738537
336.22	-0.000190	-0.000408	10.569966	-259.186826	6119.197989	-330.738611
336.73	-0.000175	-0.000408	10.569966	-264.131113	6233.013806	-330.738576
337.24	-0.000187	-0.000424	10.569966	-259.220739	6119.978479	-330.738772
