Length [m]	OTDR [V]	Brillouin intensity [V]	Fitted Frequency [GHz]	Temperature [”]	Compensated Strain [レュ]	Uncompensated Strain [レュ]
0.51	0.007310	0.043169	10.507914	-156.388947	2351.620864	-1695.901431
1.02	0.007240	0.047026	10.490031	-133.131330	1403.819080	-2089.310376
1.53	0.007218	0.050311	10.478039	-91.252952	163.210416	-2353.144052
2.04	0.007216	0.053062	10.470849	-48.076936	-996.501269	-2511.315402
2.55	0.007227	0.055405	10.464780	-23.217581	-1708.741202	-2644.848841
3.06	0.007268	0.057351	10.458313	-19.369103	-1946.468396	-2787.110962
3.57	0.007291	0.058990	10.453591	-29.757510	-1816.233590	-2890.993859
4.08	0.007265	0.060297	10.451722	-33.366421	-1776.277635	-2932.126198
4.59	0.007230	0.061377	10.451839	-16.904072	-2152.536392	-2929.551709
5.10	0.007196	0.062205	10.454522	11.616093	-2747.164682	-2870.508667
5.61	0.007193	0.062899	10.455395	34.890614	-3262.811820	-2851.311915
6.12	0.007210	0.063404	10.455758	38.459759	-3336.597226	-2843.322869
6.63	0.007237	0.063812	10.453704	23.157793	-3031.725404	-2888.513378
7.14	0.007257	0.064087	10.451011	3.339072	-2637.609201	-2947.754674
7.65	0.007261	0.064314	10.450774	-5.798910	-2432.735296	-2952.981412
8.16	0.007242	0.064438	10.453377	2.346566	-2560.194559	-2895.702452
8.67	0.007235	0.064563	10.454563	23.426443	-3018.094409	-2869.611517
9.18	0.007228	0.064624	10.454065	44.353032	-3511.306671	-2880.571276
9.69	0.007237	0.064668	10.454023	54.700416	-3750.456299	-2881.483570
10.20	0.007237	0.064643	10.453704	51.165207	-3676.438105	-2888.505372
10.71	0.007239	0.064624	10.454402	41.835106	-3445.581771	-2873.165992
11.22	0.007235	0.064573	10.452270	35.705389	-3353.641580	-2920.063600
11.73	0.007228	0.064548	10.449568	39.629995	-3506.303243	-2979.509598
12.24	0.007203	0.064513	10.450877	50.002343	-3714.868651	-2950.699283
12.75	0.007199	0.064534	10.451894	60.297644	-3928.410663	-2928.328026
13.26	0.007190	0.064520	10.451497	61.705546	-3969.969101	-2937.055329
13.77	0.007193	0.064534	10.450172	54.738983	-3840.179197	-2966.223824
14.28	0.007188	0.064510	10.451776	42.778219	-3527.841614	-2930.924665
14.79	0.007201	0.064526	10.451646	32.334643	-3290.440337	-2933.792377
15.30	0.007197	0.064515	10.451029	24.872634	-3132.904025	-2947.372722
15.81	0.007180	0.064539	10.453023	23.282415	-3050.292485	-2903.488079
16.32	0.007131	0.064537	10.453199	25.875045	-3105.918083	-2899.619176
16.83	0.007067	0.064563	10.452439	28.981424	-3194.952565	-2916.337994
17.34	0.006968	0.064544	10.452200	30.676965	-3239.494128	-2921.594758
17.85	0.006872	0.064541	10.452361	30.612840	-3234.302564	-2918.050600
18.36	0.006776	0.064504	10.452379	29.154992	-3200.337666	-2917.663568
18.87	0.006694	0.064482	10.452064	27.555402	-3170.789779	-2924.602379
19.38	0.006612	0.064417	10.451438	28.566313	-3208.481566	-2938.358623
19.89	0.006548	0.064373	10.449994	32.925578	-3342.147723	-2970.140220
20.40	0.006486	0.064285	10.450817	40.486933	-3497.214770	-2952.022926
20.91	0.006440	0.064221	10.451624	47.258725	-3634.499405	-2934.280574
21.42	0.006398	0.064141	10.452000	49.782674	-3683.920511	-2926.001325
21.93	0.006379	0.064104	10.452924	50.261355	-3673.636112	-2905.679839
22.44	0.006363	0.064067	10.452907	41.862616	-3480.682596	-2906.044771
22.95	0.006356	0.064079	10.452787	37.018842	-3371.948761	-2908.685358
23.46	0.006344	0.064065	10.452547	36.082513	-3355.930329	-2913.965749
23.97	0.006341	0.064089	10.451792	36.240374	-3376.984600	-2930.583119
24.48	0.006335	0.064075	10.451086	39.754341	-3474.152191	-2946.110089
24.99	0.006339	0.064090	10.450566	41.712442	-3531.225081	-2957.555110
25.50	0.006347	0.064083	10.450106	38.522350	-3468.398632	-2967.674491
26.02	0.006360	0.064126	10.450642	33.320596	-3336.292028	-2955.880412
26.53	0.006359	0.064144	10.451922	28.629285	-3198.770055	-2927.711973
27.04	0.006362	0.064194	10.451138	26.647817	-3171.251443	-2944.972032
27.55	0.006355	0.064206	10.450594	28.795543	-3233.231075	-2956.933739
28.06	0.006356	0.064238	10.450079	35.387433	-3396.840738	-2968.253361
28.57	0.006355	0.064230	10.449107	38.979441	-3501.945953	-2989.638401
29.08	0.006362	0.064249	10.449660	41.735692	-3552.645388	-2977.477519
29.59	0.006364	0.064226	10.450140	38.995457	-3478.503305	-2966.924648
30.10	0.006369	0.064226	10.449914	35.788073	-3409.867317	-2971.881996
30.61	0.006358	0.064189	10.449832	34.834683	-3389.822570	-2973.696282
31.12	0.006352	0.064180	10.448908	37.666266	-3476.321439	-2994.030483
31.63	0.006344	0.064146	10.448772	40.685447	-3548.954620	-2997.018761
32.14	0.006343	0.064130	10.449056	44.711156	-3635.062315	-2990.758504
32.65	0.006336	0.064092	10.448007	43.873122	-3639.963713	-3013.836001
33.16	0.006344	0.064052	10.448001	41.124184	-3576.836641	-3013.981516
33.67	0.006338	0.063982	10.449320	36.741779	-3445.523950	-2984.953025
34.18	0.006342	0.063953	10.449982	34.501468	-3378.680832	-2970.385056
34.69	0.006348	0.063881	10.449853	33.272940	-3353.387149	-2973.233984
35.20	0.006354	0.063881	10.450458	36.860020	-3422.014548	-2959.930880
35.71	0.006357	0.063838	10.451320	37.751168	-3422.648575	-2940.967349
36.22	0.006363	0.063867	10.451334	38.011498	-3428.317761	-2940.658737
36.73	0.006363	0.063844	10.451379	37.315103	-3411.237557	-2939.657670
37.24	0.006360	0.063892	10.451062	35.482376	-3376.360050	-2946.631919
37.75	0.006355	0.063896	10.451170	34.352929	-3347.869188	-2944.255373
38.26	0.006354	0.063960	10.451256	36.054197	-3385.047748	-2942.362780
38.77	0.006354	0.063975	10.451452	37.956428	-3424.331877	-2938.065832
39.28	0.006351	0.064023	10.450953	39.986738	-3482.558363	-2949.025668
39.79	0.006351	0.064014	10.449969	40.104847	-3507.991183	-2970.692659
40.30	0.006354	0.064025	10.450201	39.267308	-3483.344905	-2965.573610
40.81	0.006349	0.063997	10.449783	37.706229	-3457.044798	-2974.764873
41.32	0.006346	0.063986	10.449936	36.615983	-3428.422903	-2971.402548
41.83	0.006343	0.063943	10.449610	36.134330	-3424.849736	-2978.570484
42.34	0.006337	0.063928	10.450237	37.025379	-3430.906406	-2964.781824
42.85	0.006330	0.063886	10.450950	37.167128	-3417.725020	-2949.095427
43.36	0.006339	0.063866	10.449741	37.402348	-3451.033070	-2975.703043
43.87	0.006334	0.063814	10.449278	36.624431	-3443.807373	-2985.892360
44.38	0.006339	0.063787	10.450264	36.458872	-3417.252776	-2964.197235
44.89	0.006337	0.063741	10.450299	36.092726	-3408.019458	-2963.429568
45.40	0.006347	0.063722	10.449992	36.187145	-3417.273360	-2970.183595
45.91	0.006344	0.063703	10.450332	36.418151	-3414.746922	-2962.701062
46.42	0.006347	0.063727	10.450235	37.903615	-3451.168851	-2964.825459
46.93	0.006342	0.063730	10.449942	38.093217	-3462.286345	-2971.267098
47.44	0.006336	0.063746	10.450297	38.648066	-3466.886624	-2963.471644
47.95	0.006327	0.063732	10.450618	38.451250	-3454.957761	-2956.414442
48.46	0.006334	0.063724	10.450806	38.622187	-3454.537317	-2952.259840
48.97	0.006326	0.063673	10.451589	37.664414	-3414.446545	-2935.048381
49.48	0.006332	0.063617	10.456924	37.568733	-3289.205117	-2817.680962
49.99	0.006328	0.063489	10.478268	37.665968	-2799.175259	-2348.103838
50.50	0.006330	0.063318	10.509639	39.224336	-2111.525619	-1657.931822
51.01	0.006323	0.063013	10.537612	40.822767	-1503.186812	-1042.535090
51.53	0.006324	0.062581	10.558172	43.550758	-1091.804605	-590.212742
52.04	0.006323	0.061971	10.564628	45.115499	-978.936126	-448.187450
52.55	0.006332	0.061226	10.567818	45.879611	-922.945343	-377.998752
53.06	0.006332	0.060366	10.569509	45.084149	-865.640594	-340.802653
53.57	0.006336	0.059491	10.570308	44.227165	-827.494400	-323.232958
54.08	0.006330	0.058597	10.571595	42.191935	-750.946933	-294.904677
54.59	0.006329	0.057776	10.571731	40.460612	-707.972535	-291.928551
55.10	0.006320	0.057008	10.571492	38.062287	-658.255603	-297.167100
55.61	0.006320	0.056373	10.571918	36.338193	-608.750394	-287.802479
56.12	0.006319	0.055821	10.571914	33.777991	-549.914104	-287.896598
56.63	0.006319	0.055416	10.571580	32.005053	-516.803960	-295.243855
57.14	0.006318	0.055076	10.572076	30.167383	-463.058600	-284.328471
57.65	0.006316	0.054841	10.572490	29.267531	-432.784844	-275.209654
58.16	0.006308	0.054631	10.572351	28.052818	-408.036175	-278.275132
58.67	0.006308	0.054503	10.572491	27.551679	-393.280344	-275.203760
59.18	0.006308	0.054385	10.572896	26.556029	-361.024150	-266.297467
59.69	0.006313	0.054330	10.572725	25.686337	-344.936099	-270.048181
60.20	0.006313	0.054281	10.572853	24.609615	-317.190440	-267.224741
60.71	0.006317	0.054273	10.573164	24.640903	-310.754280	-260.398207
61.22	0.006312	0.054244	10.573063	24.300504	-305.245366	-262.617900
61.73	0.006309	0.054246	10.572113	24.699732	-336.334775	-283.507771
62.24	0.006303	0.054211	10.572248	24.372801	-325.695167	-280.537525
62.75	0.006303	0.054195	10.572722	24.358959	-314.446714	-270.111520
63.26	0.006306	0.054148	10.572956	23.628453	-292.244175	-264.973267
63.77	0.006353	0.054121	10.572874	23.317598	-286.967422	-266.765687
64.28	0.006638	0.054073	10.573416	22.766927	-261.798551	-254.848921
64.79	0.007758	0.054063	10.574320	23.291445	-253.024647	-234.961776
65.30	0.010830	0.054033	10.573991	23.457884	-264.451523	-242.207173
65.81	0.017572	0.054037	10.573193	23.915041	-293.378820	-259.762551
66.32	0.029377	0.054027	10.572748	23.926823	-303.895628	-269.535872
66.83	0.045241	0.054033	10.573135	24.343911	-304.569481	-261.020012
67.34	0.061925	0.054006	10.572926	23.736795	-295.432489	-265.635588
67.85	0.074521	0.054007	10.572827	24.051244	-304.943281	-267.803133
68.36	0.079459	0.053979	10.573117	23.633340	-288.642586	-261.430401
68.87	0.076496	0.053971	10.572734	23.233839	-288.267655	-269.845202
69.38	0.067505	0.053952	10.573116	22.762912	-268.634458	-261.457884
69.89	0.055414	0.053955	10.574220	22.627386	-240.040177	-237.157610
70.40	0.043192	0.053934	10.574374	22.162721	-225.801872	-233.779009
70.91	0.032447	0.053933	10.574479	22.154918	-223.185355	-231.454447
71.42	0.023671	0.053899	10.574527	22.095611	-220.716838	-230.402010
71.93	0.016979	0.053876	10.574263	22.242990	-230.208945	-236.220345
72.44	0.012126	0.053836	10.574820	22.026575	-212.364017	-223.950128
72.95	0.008627	0.053827	10.574519	21.955329	-217.678611	-230.584204
73.46	0.006059	0.053822	10.574492	22.105179	-221.752360	-231.179682
73.97	0.004190	0.053856	10.574543	22.327835	-225.689540	-230.046178
74.48	0.002833	0.053885	10.574545	22.338454	-225.903802	-230.017384
74.99	0.001863	0.053951	10.574338	23.060955	-247.300914	-234.563108
75.50	0.001176	0.053987	10.575013	23.481064	-241.409752	-219.718509
76.01	0.000687	0.054041	10.575577	24.019851	-240.802546	-207.308304
76.52	0.000322	0.054049	10.575547	24.394270	-250.108394	-207.963498
77.03	0.000054	0.054058	10.574981	24.857061	-273.820240	-220.420121
77.55	-0.000160	0.054012	10.574715	24.008246	-260.413218	-226.269861
78.06	-0.000326	0.053991	10.575581	24.178115	-244.360641	-207.227136
78.57	-0.000460	0.053952	10.576746	23.625087	-204.762225	-181.597722
79.08	-0.000549	0.053936	10.575877	23.639174	-225.123001	-200.710618
79.59	-0.000597	0.053912	10.573838	22.902998	-255.202296	-245.568791
80.10	-0.000616	0.053928	10.573736	23.218105	-264.798632	-247.803479
80.61	-0.000599	0.053936	10.574877	23.069464	-235.073991	-222.712949
81.12	-0.000536	0.053972	10.574858	23.609373	-247.932561	-223.123166
81.63	-0.000458	0.053997	10.575564	24.120783	-243.430151	-207.598474
82.14	-0.000349	0.054048	10.576646	24.952261	-237.606703	-183.785377
82.65	-0.000231	0.054062	10.576967	24.671352	-223.742991	-176.729079
83.16	-0.000119	0.054088	10.576191	25.279650	-255.636130	-193.794761
83.67	-0.000017	0.054074	10.576789	24.874189	-232.508419	-180.636463
84.18	0.000061	0.054074	10.577183	25.107508	-228.793100	-171.969042
84.69	0.000115	0.054067	10.576724	24.904872	-234.717526	-182.069983
85.20	0.000127	0.054089	10.577379	25.444409	-232.034676	-167.663329
85.71	0.000115	0.054115	10.576648	25.557394	-251.486669	-183.737690
86.22	0.000069	0.054168	10.577471	25.983355	-242.317442	-165.637630
86.73	-0.000032	0.054164	10.578874	25.426809	-197.141704	-134.765232
87.24	-0.000150	0.054156	10.578221	25.410321	-211.837079	-149.145274
87.75	-0.000314	0.054085	10.578943	24.718917	-179.271439	-133.262986
88.26	-0.000487	0.054003	10.578901	24.467291	-174.448228	-134.187435
88.77	0.000000	0.053911	10.579463	23.935317	-149.240341	-121.822900
89.28	0.000000	0.053920	10.578741	24.477251	-178.363032	-137.703080
89.79	0.000000	0.054010	10.577967	25.126779	-211.155246	-154.721046
90.30	0.000000	0.054127	10.578120	25.978979	-227.241345	-151.352551
90.81	-0.000012	0.054154	10.578467	26.155702	-223.307435	-143.719397
91.32	-0.000039	0.054099	10.577609	25.844334	-235.925121	-162.592666
91.83	-0.000056	0.054026	10.577952	25.448538	-218.906208	-155.049364
92.34	-0.000076	0.053993	10.578361	25.686515	-214.959791	-146.059204
92.85	-0.000098	0.053942	10.579145	25.360112	-189.366972	-128.813434
93.36	-0.000129	0.053930	10.579967	25.255316	-167.991396	-110.724340
93.87	-0.000129	0.053906	10.579520	24.818899	-168.265224	-120.568623
94.38	-0.000129	0.053923	10.578205	24.909601	-200.678726	-149.496345
94.89	-0.000129	0.053895	10.578200	24.491746	-191.173000	-149.604280
95.40	-0.000129	0.053862	10.580229	24.583166	-146.481133	-104.965040
95.91	-0.000129	0.053818	10.579169	24.430878	-167.428205	-128.290583
96.42	-0.000129	0.053811	10.578946	24.728672	-179.422286	-133.192662
96.93	-0.000153	0.053814	10.579433	24.790116	-169.594518	-122.468687
97.44	-0.000153	0.053830	10.577840	24.677557	-203.755938	-157.527069
97.95	-0.000153	0.053785	10.577519	21.734161	-143.394650	-164.580893
98.46	-0.000153	0.053721	10.576664	5.913228	201.080605	-183.389236
98.97	-0.000153	0.053606	10.575030	-44.203002	1317.042946	-219.347782
99.48	-0.000153	0.053537	10.572829	-127.535638	3184.586140	-267.754254
99.99	-0.000153	0.053458	10.570527	-208.092618	4985.887642	-318.399564
100.50	-0.000153	0.053312	10.568888	-260.106118	6145.418742	-354.458963
101.01	-0.000153	0.052794	10.571110	-287.554081	6828.506209	-305.576350
101.52	-0.000153	0.051634	10.573892	-301.669136	7217.581747	-244.381619
102.03	-0.000153	0.049456	10.575217	-308.879229	7414.112727	-215.233026
102.54	-0.000151	0.046193	10.571804	-312.367025	7415.682589	-290.322534
103.06	-0.000151	0.041913	10.563789	-313.783425	7263.443900	-466.645916
103.57	-0.000153	0.036971	10.579511	-313.793710	7626.293615	-120.747575
104.08	-0.000153	0.031662	10.603068	-312.789855	8146.477303	397.501502
104.59	-0.000153	0.026365	10.605249	-311.135677	8158.685621	445.470478
105.10	-0.000153	0.021279	10.625432	-309.211992	8579.896648	889.507170
105.61	-0.000153	0.016634	10.650137	-307.225288	9103.933597	1433.013871
106.12	-0.000153	0.012536	10.688128	-305.715235	9945.366805	2268.819885
106.63	-0.000153	0.009119	10.692936	-305.134672	10042.878442	2374.585063
107.14	-0.000153	0.006367	10.681778	-305.727683	9799.207820	2129.124733
107.65	-0.000153	0.004278	10.624136	-307.083001	8500.989312	860.986669
108.16	-0.000153	0.002684	10.620331	-309.862544	8477.213229	777.271755
108.67	-0.000151	0.001522	10.627185	-314.239131	8736.040656	928.064963
109.18	-0.000148	0.000648	10.627474	-322.251182	8927.152203	934.434069
109.69	-0.000145	0.000034	10.627807	-335.766194	9245.940231	941.757270
110.20	-0.000145	-0.000409	10.627692	-362.248922	9852.916263	939.231991
110.71	-0.000135	-0.000665	10.627388	-424.520712	11279.376542	932.540329
111.22	-0.000125	-0.000831	10.627516	-989.297328	24283.283698	935.347344
111.73	-0.000121	-0.000907	10.627432	-96.708250	3734.254686	933.502696
112.24	-0.000121	-0.000989	10.627240	-208.294144	6298.489078	929.272395
112.75	-0.000119	-0.001044	10.627478	-240.831282	7052.990147	934.525832
113.26	-0.000117	-0.001114	10.627593	-251.019435	7290.168697	937.054398
113.77	-0.000116	-0.001148	10.627463	-255.607603	7392.790528	934.196283
114.28	-0.000114	-0.001174	10.627488	-256.240653	7407.936720	934.743431
114.79	-0.000116	-0.001153	10.627578	-255.455809	7391.926918	936.705643
115.30	-0.000116	-0.001150	10.627179	-246.137005	7168.209477	927.928053
115.81	-0.000116	-0.001137	10.627365	-231.713718	6840.490864	932.030343
116.32	-0.000116	-0.001149	10.627318	-197.692159	6056.236802	930.991136
116.83	-0.000116	-0.001124	10.627141	-131.150755	4520.400064	927.102666
117.34	-0.000116	-0.001111	10.627395	57.396165	185.983117	932.700795
117.85	-0.000114	-0.001064	10.627487	2349.113022	-52566.451316	934.707494
118.36	-0.000110	-0.001041	10.627448	-1064.145929	26004.701277	933.848174
118.87	-0.000110	-0.001011	10.627031	-710.625113	17857.172932	924.690598
119.38	-0.000109	-0.001013	10.626763	-676.136010	17057.046152	918.776923
119.89	-0.000108	-0.001007	10.627011	-707.366147	17781.675424	924.235362
120.40	-0.000102	-0.001026	10.627269	-970.700139	23849.480196	929.907609
120.91	-0.000101	-0.001042	10.627000	1042.990945	-22511.183006	924.009341
121.42	-0.000100	-0.001077	10.627018	-33.038592	2259.047078	924.389212
121.93	-0.000098	-0.001096	10.626169	-189.149372	5833.093419	905.720902
122.44	-0.000096	-0.001127	10.625684	-238.986514	6969.140060	895.049262
122.95	-0.000096	-0.001120	10.626675	-Inf	Inf	916.846865
123.46	-0.000095	-0.001117	10.625962	-Inf	Inf	901.154815
123.97	-0.000095	-0.001074	10.626957	-Inf	Inf	923.054816
124.48	-0.000094	-0.001063	10.627501	-Inf	Inf	935.024210
124.99	-0.000094	-0.001028	10.627343	3345.698767	-75510.832239	931.542446
125.50	-0.000091	-0.001017	10.627034	781.175713	-16483.520587	924.739405
126.01	-0.000088	-0.000970	10.626985	396.304077	-7625.033403	923.665108
126.52	-0.000088	-0.000935	10.627618	181.688393	-2670.051134	937.594633
127.03	-0.000088	-0.000865	10.627517	36.178558	677.202689	935.369369
127.54	-0.000080	-0.000833	10.627543	-63.987804	2983.599674	935.943233
128.05	-0.000076	-0.000789	10.627649	-78.479566	3319.634780	938.270463
128.56	-0.000074	-0.000793	10.627767	-76.982022	3287.891701	940.874517
129.08	-0.000074	-0.000789	10.627845	-78.290469	3319.805661	942.585783
129.59	-0.000086	-0.000830	10.627705	-64.899302	3008.309693	939.499056
130.10	-0.000086	-0.000847	10.627369	-59.367802	2873.237815	932.117113
130.61	-0.000078	-0.000893	10.627401	-44.310700	2527.359004	932.813974
131.12	-0.000076	-0.000904	10.627179	-85.966111	3481.135480	927.932992
131.63	-0.000074	-0.000942	10.627121	-75.293152	3234.123380	926.669810
132.14	-0.000086	-0.000964	10.627346	-69.156622	3098.040656	931.609215
132.65	-0.000101	-0.000995	10.627342	-60.651892	2902.177794	931.526336
133.16	-0.000112	-0.000991	10.627169	-62.982237	2951.836452	927.724945
133.67	-0.000119	-0.000990	10.627094	-63.325114	2957.995129	926.070649
134.18	-0.000117	-0.000930	10.626787	-79.861677	3331.574814	919.310941
134.69	-0.000105	-0.000889	10.627099	-91.092878	3597.311670	926.177581
135.20	-0.000105	-0.000830	10.627562	-107.420089	3983.847926	936.374299
135.71	-0.000099	-0.000801	10.627389	-115.469128	4165.124379	932.549468
136.22	-0.000097	-0.000770	10.627131	-123.274291	4338.846925	926.874069
136.73	-0.000090	-0.000790	10.627111	-115.966058	4170.160313	926.441381
137.24	-0.000096	-0.000778	10.627369	-119.322604	4253.377105	932.117357
137.75	-0.000087	-0.000799	10.627618	-115.158578	4163.271501	937.601233
138.26	-0.000075	-0.000778	10.627397	-120.970982	4291.970849	932.736115
138.77	-0.000066	-0.000786	10.627182	-118.715348	4235.079528	927.997689
139.28	-0.000066	-0.000772	10.626938	-122.674047	4320.589727	922.638940
139.79	-0.000060	-0.000786	10.626347	-118.824935	4218.340894	909.624252
140.30	-0.000070	-0.000789	10.626574	-117.804883	4200.103563	914.626432
140.81	-0.000087	-0.000793	10.627212	-116.702063	4189.423681	928.655201
141.32	-0.000077	-0.000790	10.627058	-117.628419	4207.195915	925.266772
141.83	-0.000078	-0.000767	10.626859	-123.920224	4347.448542	920.895429
142.34	-0.000083	-0.000743	10.627265	-130.669579	4512.191042	929.837965
142.85	-0.000082	-0.000725	10.627322	-134.174678	4594.185910	931.086325
143.36	-0.000085	-0.000716	10.627559	-131.509509	4538.309542	936.308874
143.87	-0.000094	-0.000722	10.627539	-126.209174	4415.816122	935.849537
144.38	-0.000097	-0.000700	10.627769	-132.270270	4560.642803	940.907456
144.89	-0.000079	-0.000674	10.627954	-124.833439	4393.731645	944.992225
145.40	-0.000098	-0.000611	10.627897	-129.407421	4497.693262	943.723638
145.91	-0.000091	-0.000560	10.627967	-140.861752	4762.994712	945.275322
146.42	-0.000079	-0.000501	10.627621	-161.691760	5234.523527	937.671906
146.93	-0.000086	-0.000497	10.627448	-159.643500	5183.366433	933.849748
147.44	-0.000082	-0.000491	10.626975	-159.305935	5164.687159	923.443931
147.95	-0.000074	-0.000533	10.626194	-142.549699	4760.965536	906.274782
148.46	-0.000077	-0.000553	10.626398	-131.187522	4504.104245	910.750640
148.97	-0.000070	-0.000594	10.626964	-120.039267	4260.531961	923.205525
149.48	-0.000067	-0.000594	10.627420	-120.246448	4275.812865	933.232668
149.99	-0.000060	-0.000607	10.626482	-115.728025	4150.173576	912.602795
150.50	-0.000065	-0.000586	10.627231	-123.481593	4345.932006	929.080516
151.01	-0.000062	-0.000602	10.627405	-117.497687	4212.201228	932.912060
151.52	-0.000073	-0.000601	10.627429	-117.510445	4213.054198	933.445555
152.03	-0.000072	-0.000639	10.626723	-99.093417	3772.816103	917.911771
152.54	-0.000081	-0.000651	10.626833	-85.199356	3455.516903	920.332146
153.05	-0.000076	-0.000680	10.627118	-74.021182	3204.765672	926.595966
153.56	-0.000078	-0.000666	10.627613	-77.381860	3293.537579	937.480269
154.07	-0.000079	-0.000661	10.627676	-76.930314	3284.594151	938.864384
154.59	-0.000073	-0.000626	10.627489	-77.265401	3288.008947	934.763763
155.10	-0.000071	-0.000630	10.627728	-73.172662	3199.298483	940.013077
155.61	-0.000077	-0.000621	10.627451	-73.855282	3208.621924	933.917410
156.12	-0.000070	-0.000653	10.626980	-55.695645	2779.737235	923.561752
156.63	-0.000073	-0.000653	10.626730	-50.130284	2645.855092	918.058252
157.14	-0.000073	-0.000674	10.625119	-40.055283	2376.778758	882.617585
157.65	-0.000071	-0.000645	10.625123	-49.468680	2593.555803	882.697573
158.16	-0.000070	-0.000645	10.627347	-48.831205	2630.173700	931.625623
158.67	-0.000067	-0.000620	10.626809	-56.828683	2801.871100	919.795460
159.18	-0.000067	-0.000635	10.626327	-49.196293	2615.057445	909.189337
159.69	-0.000067	-0.000633	10.626229	-43.666950	2485.516254	907.035792
160.20	-0.000065	-0.000666	10.626797	-16.624955	1876.119123	919.532277
160.71	-0.000063	-0.000664	10.627144	-17.416286	1902.333552	927.161852
161.22	-0.000058	-0.000681	10.626971	-9.555729	1717.391293	923.351075
161.73	-0.000070	-0.000643	10.627179	3.557082	1420.347064	927.937641
162.24	-0.000065	-0.000653	10.626908	29.079788	826.578460	921.980845
162.75	-0.000067	-0.000618	10.627014	17.731492	1090.246084	924.302386
163.26	-0.000064	-0.000618	10.627666	18.937194	1077.532336	938.650168
163.77	-0.000062	-0.000595	10.627928	-44.046778	2533.454584	944.423930
164.28	-0.000061	-0.000598	10.627714	-41.840763	2477.719222	939.698611
164.79	-0.000063	-0.000581	10.626905	-23.093325	2027.501009	921.900072
165.30	-0.000063	-0.000599	10.626891	-4.832640	1606.838102	921.606101
165.81	-0.000067	-0.000584	10.626792	-2.889783	1559.830269	919.427439
166.32	-0.000064	-0.000601	10.627301	-40.598670	2439.620035	930.630190
166.83	-0.000069	-0.000593	10.627818	-87.309498	3526.793235	941.987316
167.34	-0.000072	-0.000621	10.627824	-102.601730	3878.955312	942.120983
167.85	-0.000067	-0.000627	10.628172	-114.577110	4162.649628	949.776226
168.36	-0.000066	-0.000663	10.629904	-96.412462	3784.467181	987.895731
168.87	-0.000064	-0.000652	10.629903	-73.994523	3268.381871	987.865185
169.38	-0.000061	-0.000642	10.629909	-78.284004	3367.269942	988.004152
169.89	-0.000067	-0.000589	10.629911	-83.518945	3487.807771	988.033989
170.40	-0.000069	-0.000545	10.629903	-98.648891	3835.921659	987.869651
170.91	-0.000064	-0.000466	10.629900	-117.959944	4280.387831	987.805105
171.42	-0.000064	-0.000427	10.627210	-148.810702	4928.513214	928.616710
171.93	-0.000071	-0.000389	10.626953	-146.446634	4868.168423	922.965045
172.44	-0.000061	-0.000406	10.627330	-107.171947	3972.774133	931.259799
172.95	-0.000060	-0.000429	10.627547	-61.960754	2937.030449	936.031726
173.46	-0.000066	-0.000494	10.627440	-18.132199	1925.646561	933.679819
173.97	-0.000063	-0.000537	10.627312	43.125800	512.564543	930.871684
174.48	-0.000062	-0.000598	10.627399	26.096347	906.573642	932.776548
174.99	-0.000071	-0.000617	10.627540	-36.644594	2354.110344	935.887912
175.50	-0.000068	-0.000647	10.627508	20.738779	1032.416924	935.174574
176.01	-0.000068	-0.000627	10.627274	2.189762	1454.023349	930.037225
176.52	-0.000061	-0.000631	10.627331	-13.366007	1813.415972	931.281243
177.03	-0.000065	-0.000613	10.627216	-21.967343	2008.765187	928.752843
177.54	-0.000065	-0.000613	10.627243	-31.059402	2218.678463	929.341581
178.05	-0.000061	-0.000592	10.627572	-69.156086	3103.243037	936.583560
178.56	-0.000062	-0.000589	10.627299	-80.573594	3359.769947	930.573755
179.07	-0.000061	-0.000545	10.627277	-44.759626	2534.843962	930.096141
179.58	-0.000058	-0.000534	10.627216	-105.822546	3939.085480	928.754933
180.09	-0.000056	-0.000509	10.627490	-99.021542	3788.839484	934.774829
180.61	-0.000057	-0.000522	10.627212	-56.123713	2794.929183	928.653669
181.12	-0.000055	-0.000534	10.626794	-75.171508	3223.777665	919.472110
181.63	-0.000050	-0.000583	10.627603	-34.366914	2303.121266	937.263768
182.14	-0.000059	-0.000618	10.627400	16.225859	1133.807368	932.794172
182.65	-0.000057	-0.000683	10.626557	37.220859	631.064704	914.245543
183.16	-0.000059	-0.000709	10.627331	91.088471	-591.084334	931.287017
183.67	-0.000058	-0.000758	10.627558	141.887850	-1755.235730	936.278734
184.18	-0.000058	-0.000761	10.627045	199.615804	-3095.936747	925.000468
184.69	-0.000057	-0.000781	10.627021	175.228073	-2535.114019	924.452455
185.20	-0.000052	-0.000765	10.626851	187.193971	-2814.468655	920.728636
185.71	-0.000055	-0.000772	10.625130	111.496328	-1111.622919	882.869952
186.22	-0.000052	-0.000754	10.627051	104.440847	-904.918599	925.117974
186.73	-0.000055	-0.000765	10.627073	61.048397	94.465223	925.599208
187.24	-0.000063	-0.000754	10.626738	82.223692	-400.704885	918.233074
187.75	-0.000063	-0.000764	10.627372	78.482054	-299.945827	932.186655
188.26	-0.000061	-0.000738	10.627323	59.800873	128.966056	931.115885
188.77	-0.000055	-0.000735	10.627131	91.221938	-598.773614	926.882926
189.28	-0.000056	-0.000704	10.627094	81.123221	-367.154219	926.072464
189.79	-0.000053	-0.000699	10.626343	49.975407	332.543048	909.555825
190.30	-0.000057	-0.000662	10.626666	62.329176	55.608104	916.657264
190.81	-0.000056	-0.000646	10.626855	38.675775	604.463466	920.818355
191.32	-0.000056	-0.000602	10.627187	11.041206	1248.247591	928.111717
191.83	-0.000052	-0.000597	10.627766	16.801222	1129.019213	940.860886
192.34	-0.000048	-0.000580	10.628071	12.949502	1224.705365	947.558127
192.85	-0.000044	-0.000605	10.627436	46.098718	446.987449	933.598386
193.36	-0.000052	-0.000596	10.627228	42.434223	526.542136	929.018940
193.87	-0.000045	-0.000615	10.627951	54.858436	257.202466	944.912398
194.38	-0.000054	-0.000592	10.627934	48.139520	411.485234	944.545726
194.89	-0.000048	-0.000580	10.627461	51.021909	334.222635	934.137690
195.40	-0.000047	-0.000543	10.627480	56.669741	204.645380	934.551592
195.91	-0.000048	-0.000535	10.627312	-11.133218	1761.589889	930.872939
196.42	-0.000044	-0.000507	10.627566	-6.821698	1668.190484	936.453576
196.93	-0.000044	-0.000510	10.627901	-12.454242	1805.565934	943.814109
197.44	-0.000046	-0.000476	10.627431	-21.406387	2000.819706	933.491389
197.95	-0.000039	-0.000478	10.627052	-11.511069	1764.289568	925.151117
198.46	-0.000044	-0.000456	10.627737	-22.558375	2034.385758	940.214200
198.97	-0.000041	-0.000470	10.627199	-20.626655	1977.507640	928.375680
199.48	-0.000046	-0.000477	10.627037	-14.553819	1833.983592	924.818160
199.99	-0.000048	-0.000530	10.627850	-0.476201	1528.665335	942.697863
200.50	-0.000057	-0.000560	10.628071	35.645506	702.264063	947.570477
201.01	-0.000055	-0.000611	10.627977	37.091618	666.797915	945.493693
201.52	-0.000059	-0.000601	10.627698	15.835237	1149.672686	939.350686
202.03	-0.000058	-0.000602	10.627677	46.507988	443.122984	938.899044
202.54	-0.000057	-0.000555	10.627676	21.845419	1010.826348	938.879442
203.05	-0.000054	-0.000528	10.627299	14.326839	1175.208819	930.587469
203.56	-0.000051	-0.000474	10.627330	-6.839750	1663.171957	931.269977
204.07	-0.000053	-0.000482	10.627706	-32.741757	2268.096538	939.539608
204.58	-0.000049	-0.000485	10.627635	-36.983159	2364.078547	937.962234
205.09	-0.000045	-0.000536	10.627910	16.077531	1148.978845	944.009251
205.60	-0.000050	-0.000578	10.627890	43.270637	522.549017	943.576348
206.12	-0.000042	-0.000636	10.627916	43.010893	529.140069	944.159968
206.63	-0.000040	-0.000644	10.627659	110.458753	-1029.415355	938.504498
207.14	-0.000045	-0.000664	10.627096	133.587152	-1574.811038	926.115320
207.65	-0.000043	-0.000639	10.626981	70.882895	-134.025987	923.591778
208.16	-0.000045	-0.000632	10.626942	86.479245	-493.961148	922.721324
208.67	-0.000048	-0.000596	10.627129	67.515859	-53.106427	926.846055
209.18	-0.000047	-0.000588	10.626869	14.077232	1171.038537	921.128397
209.69	-0.000048	-0.000564	10.626988	15.120894	1149.747526	923.736129
210.20	-0.000047	-0.000583	10.626899	24.717980	926.771296	921.776232
210.71	-0.000050	-0.000580	10.626962	66.734645	-38.993839	923.153786
211.22	-0.000049	-0.000595	10.627197	52.506238	293.965296	928.329741
211.73	-0.000048	-0.000570	10.627225	33.510848	731.875822	928.943247
212.24	-0.000049	-0.000568	10.627224	55.633457	222.597198	928.920600
212.75	-0.000049	-0.000523	10.627019	20.149763	1034.698641	924.417171
213.26	-0.000041	-0.000507	10.627418	14.648059	1170.552766	933.199569
213.77	-0.000044	-0.000474	10.628002	7.688927	1344.221706	946.050671
214.28	-0.000037	-0.000477	10.628167	24.962973	950.383929	949.680148
214.79	-0.000043	-0.000451	10.627530	0.484170	1499.186719	935.666441
215.30	-0.000043	-0.000451	10.627176	11.759784	1231.459963	927.876876
215.81	-0.000046	-0.000415	10.627196	14.566952	1167.304234	928.319787
216.32	-0.000045	-0.000412	10.627218	-41.475954	2457.896113	928.799943
216.83	-0.000047	-0.000384	10.626991	-52.569881	2708.037707	923.804518
217.34	-0.000041	-0.000399	10.627194	-52.201525	2704.231343	928.262179
217.85	-0.000047	-0.000385	10.626967	-54.072288	2742.070117	923.277494
218.36	-0.000038	-0.000409	10.627152	-38.405865	2385.691127	927.337992
218.87	-0.000042	-0.000415	10.628097	-29.293369	2197.729313	948.137625
219.38	-0.000040	-0.000449	10.629882	29.275131	890.677722	987.414896
219.89	-0.000042	-0.000460	10.629890	20.275577	1098.016165	987.578765
220.40	-0.000037	-0.000496	10.629886	66.364618	36.966055	987.487062
220.91	-0.000035	-0.000495	10.629876	42.605797	583.660323	987.271796
221.42	-0.000034	-0.000515	10.627194	11.933203	1227.875931	928.266066
221.93	-0.000036	-0.000491	10.626871	-4.978653	1609.739396	921.167426
222.44	-0.000030	-0.000490	10.626619	4.586390	1383.731464	915.611959
222.95	-0.000030	-0.000466	10.626882	19.421612	1048.302587	921.404886
223.46	-0.000037	-0.000478	10.627239	21.836511	1000.937548	929.250872
223.97	-0.000032	-0.000460	10.627238	28.267727	852.873867	929.232468
224.48	-0.000039	-0.000474	10.627054	15.598246	1140.280499	925.187434
224.99	-0.000043	-0.000457	10.627060	7.629988	1323.854079	925.327671
225.50	-0.000039	-0.000466	10.627434	14.763886	1168.258743	933.554671
226.01	-0.000046	-0.000443	10.627471	24.806709	937.922526	934.361815
226.52	-0.000038	-0.000441	10.627386	50.029037	355.346417	932.485728
227.03	-0.000052	-0.000411	10.627354	59.685591	132.331374	931.794646
227.54	-0.000044	-0.000409	10.627356	-3.636489	1590.024148	931.832947
228.05	-0.000045	-0.000377	10.627334	19.821849	1049.502581	931.338197
228.56	-0.000046	-0.000385	10.626720	-34.069823	2275.920539	917.840554
229.07	-0.000040	-0.000384	10.626947	4.723577	1388.152454	922.841604
229.58	-0.000041	-0.000422	10.627645	43.500977	511.593589	938.183834
230.09	-0.000042	-0.000432	10.627428	46.724526	432.390355	933.416004
230.60	-0.000044	-0.000472	10.626987	118.714045	-1234.950143	923.718222
231.11	-0.000045	-0.000463	10.627153	107.641373	-976.231913	927.370832
231.62	-0.000042	-0.000471	10.626511	99.690746	-808.016386	913.248086
232.14	-0.000043	-0.000423	10.626692	127.902923	-1453.291900	917.215522
232.65	-0.000039	-0.000388	10.627187	34.013633	719.429840	928.111407
233.16	-0.000038	-0.000327	10.627203	-0.130441	1505.791536	928.470821
233.67	-0.000037	-0.000317	10.627404	-43.934772	2518.783665	932.888756
234.18	-0.000036	-0.000300	10.627338	-73.133924	3189.424722	931.445082
234.69	-0.000041	-0.000318	10.627713	-101.901811	3860.301522	939.696249
235.20	-0.000046	-0.000304	10.627553	-102.461800	3869.485383	936.160220
235.71	-0.000044	-0.000299	10.627690	-123.398398	4354.603175	939.178820
236.22	-0.000048	-0.000254	10.627747	-151.407392	5000.668440	940.426342
236.73	-0.000042	-0.000225	10.627232	-170.522379	5428.822669	929.107092
237.24	-0.000041	-0.000166	10.627019	-205.594100	6231.247915	924.419804
237.75	-0.000034	-0.000156	10.627090	-208.174821	6292.297346	925.986230
238.26	-0.000037	-0.000137	10.627144	-227.879394	6747.123849	927.163339
238.77	-0.000035	-0.000160	10.627425	-198.235713	6071.213526	933.341838
239.28	-0.000035	-0.000154	10.627194	-191.643360	5914.129280	928.257026
239.79	-0.000033	-0.000171	10.627369	-191.697672	5919.431376	932.122096
240.30	-0.000031	-0.000168	10.627261	-168.679674	5387.071044	929.743173
240.81	-0.000033	-0.000215	10.627047	-111.579158	4067.705613	925.039367
241.32	-0.000036	-0.000237	10.627261	-111.169466	4063.193708	929.731696
241.83	-0.000039	-0.000292	10.627453	-49.823448	2655.473802	933.971271
242.34	-0.000043	-0.000311	10.627295	-41.417001	2458.309798	930.489067
242.85	-0.000037	-0.000359	10.626871	-22.040823	2002.488581	921.152033
243.36	-0.000039	-0.000366	10.627061	-8.371353	1692.209676	925.337400
243.87	-0.000036	-0.000407	10.627477	20.189384	1044.358009	934.501305
244.38	-0.000034	-0.000412	10.627184	32.013785	765.388671	928.037959
244.89	-0.000038	-0.000439	10.626640	32.038683	752.272231	916.072843
245.40	-0.000037	-0.000431	10.626492	39.442966	578.424695	912.826246
245.91	-0.000039	-0.000443	10.626691	57.425294	169.075538	917.212198
246.42	-0.000039	-0.000412	10.626797	20.002511	1032.978491	919.542867
246.93	-0.000038	-0.000407	10.627518	14.065916	1186.255087	935.395072
247.44	-0.000036	-0.000359	10.627186	37.649770	635.696088	928.081716
247.95	-0.000031	-0.000347	10.626934	-2.415181	1552.166878	922.538880
248.46	-0.000037	-0.000312	10.627472	22.291224	995.841880	934.374918
248.97	-0.000036	-0.000322	10.627568	-20.225809	1976.800076	936.502741
249.48	-0.000042	-0.000302	10.627073	-37.819631	2370.386523	925.611707
249.99	-0.000037	-0.000309	10.626628	-49.209585	2622.306092	915.811981
250.50	-0.000037	-0.000291	10.627232	-65.270031	3005.948191	929.105713
251.01	-0.000034	-0.000300	10.627343	-68.082023	3073.228222	931.537154
251.52	-0.000035	-0.000292	10.626699	-34.030713	2274.532512	917.375290
252.03	-0.000036	-0.000321	10.627101	-49.917487	2649.512501	926.219799
252.54	-0.000040	-0.000318	10.627887	14.504782	1184.658763	943.509179
253.05	-0.000043	-0.000339	10.626875	6.782960	1339.074197	921.246702
253.56	-0.000043	-0.000323	10.627173	3.844400	1413.596369	927.807195
254.07	-0.000042	-0.000333	10.627699	2.018843	1467.742858	939.371194
254.58	-0.000037	-0.000316	10.627344	21.081814	1020.745163	931.573391
255.09	-0.000033	-0.000314	10.627471	41.466219	554.421579	934.357295
255.60	-0.000038	-0.000298	10.627136	30.996149	787.708384	926.983016
256.11	-0.000031	-0.000311	10.626617	33.839082	710.306117	915.575347
256.62	-0.000037	-0.000303	10.627063	92.399964	-627.471560	925.375573
257.13	-0.000033	-0.000340	10.627430	148.589696	-1912.464360	933.460499
257.65	-0.000040	-0.000348	10.627158	66.429988	-27.460972	927.465215
258.16	-0.000031	-0.000392	10.626786	178.144851	-2607.663597	919.295302
258.67	-0.000033	-0.000402	10.626875	98.674722	-776.239545	921.249728
259.18	-0.000030	-0.000418	10.627248	77.567830	-281.762818	929.456468
259.69	-0.000030	-0.000387	10.627117	80.914679	-361.832754	926.569361
260.20	-0.000031	-0.000370	10.627276	4.075218	1410.651597	930.066611
260.71	-0.000032	-0.000303	10.627312	-1.103154	1530.692971	930.865052
261.22	-0.000027	-0.000276	10.627337	-110.073777	4039.729963	931.409276
261.73	-0.000032	-0.000235	10.627381	-111.410571	4071.519588	932.379465
262.24	-0.000027	-0.000241	10.626863	-110.698947	4043.198413	920.990012
262.75	-0.000029	-0.000240	10.627019	-115.817441	4164.628812	924.428279
263.26	-0.000030	-0.000275	10.627105	-45.847693	2555.927468	926.315414
263.77	-0.000029	-0.000292	10.627093	-33.495653	2271.301978	926.042820
264.28	-0.000030	-0.000340	10.626221	8.315119	1288.716184	906.853962
264.79	-0.000033	-0.000348	10.627389	-1.727878	1546.854560	932.563624
265.30	-0.000025	-0.000379	10.628575	23.317833	997.659175	958.651317
265.81	-0.000035	-0.000377	10.629833	44.638558	535.877894	986.328410
266.32	-0.000030	-0.000403	10.627500	62.578482	69.092274	934.994294
266.83	-0.000035	-0.000409	10.627276	111.110424	-1053.261557	930.067255
267.34	-0.000027	-0.000443	10.627378	163.911256	-2266.351010	932.325745
267.85	-0.000036	-0.000448	10.626675	178.689536	-2622.764630	916.850856
268.36	-0.000035	-0.000458	10.626871	195.265340	-2999.824085	921.152852
268.87	-0.000037	-0.000426	10.627567	103.559759	-872.736959	936.468772
269.38	-0.000037	-0.000423	10.627054	54.959143	234.217943	925.198725
269.89	-0.000033	-0.000377	10.626688	27.211613	864.506505	917.138147
270.40	-0.000033	-0.000349	10.626412	-28.186280	2133.369882	911.054940
270.91	-0.000041	-0.000304	10.627037	-31.363647	2220.941751	924.819761
271.42	-0.000035	-0.000284	10.626988	-41.217112	2446.633840	923.740598
271.93	-0.000040	-0.000252	10.627329	-25.970750	2103.525648	931.236220
272.44	-0.000038	-0.000272	10.627588	-23.771927	2058.874899	936.926662
272.95	-0.000037	-0.000267	10.627926	-17.963241	1932.965158	944.371143
273.46	-0.000033	-0.000288	10.627902	13.263459	1213.587520	943.846794
273.97	-0.000032	-0.000276	10.627341	16.639684	1122.920824	931.496442
274.48	-0.000021	-0.000292	10.627520	61.824568	86.919202	935.444616
274.99	-0.000028	-0.000275	10.627872	19.366911	1072.398817	943.189255
275.50	-0.000032	-0.000294	10.627745	8.855737	1311.433186	940.395005
276.01	-0.000035	-0.000293	10.627471	-18.044525	1924.352465	934.370587
276.52	-0.000038	-0.000329	10.625879	-13.646261	1786.391680	899.348672
277.03	-0.000037	-0.000353	10.626857	66.307948	-31.590711	920.846012
277.54	-0.000034	-0.000412	10.627430	105.559050	-921.911997	933.462032
278.05	-0.000038	-0.000438	10.627432	177.671398	-2581.873477	933.500297
278.56	-0.000032	-0.000489	10.627402	265.308930	-4599.956654	932.835263
279.07	-0.000034	-0.000479	10.627367	194.486006	-2970.433932	932.075221
279.58	-0.000034	-0.000479	10.627198	206.837758	-3258.666592	928.355421
280.09	-0.000038	-0.000438	10.626553	133.374711	-1582.443415	914.169867
280.60	-0.000033	-0.000420	10.626259	123.809260	-1369.036008	907.696658
281.11	-0.000036	-0.000383	10.626602	91.722293	-622.498589	915.238616
281.62	-0.000034	-0.000393	10.627322	130.561739	-1499.958627	931.083684
282.13	-0.000037	-0.000376	10.627480	172.569554	-2463.311587	934.567879
282.64	-0.000032	-0.000411	10.627496	130.248393	-1488.728179	934.915831
283.15	-0.000040	-0.000422	10.627512	160.852924	-2192.872769	935.260431
283.67	-0.000035	-0.000462	10.627634	123.524711	-1330.779635	937.941313
284.18	-0.000040	-0.000470	10.627306	198.165142	-3056.533541	930.732928
284.69	-0.000034	-0.000479	10.626801	205.554659	-3238.292399	919.615431
285.20	-0.000034	-0.000437	10.627351	211.550977	-3363.627367	931.728342
285.71	-0.000030	-0.000393	10.627757	140.986109	-1729.886999	940.658087
286.22	-0.000029	-0.000319	10.627716	35.439587	698.818110	939.761678
286.73	-0.000027	-0.000288	10.627974	-29.358474	2196.389214	945.429687
287.24	-0.000029	-0.000265	10.627735	-77.180020	3291.707230	940.166418
287.75	-0.000029	-0.000290	10.627417	-48.351810	2620.762770	933.175307
288.26	-0.000037	-0.000322	10.627624	-12.084779	1790.688713	937.735545
288.77	-0.000033	-0.000388	10.627642	108.986592	-995.917517	938.131718
289.28	-0.000034	-0.000419	10.627443	198.378778	-3058.302035	933.737091
289.79	-0.000031	-0.000471	10.627013	193.364340	-2952.788172	924.277421
290.30	-0.000034	-0.000477	10.627271	311.472625	-5665.650290	929.953352
290.81	-0.000032	-0.000499	10.627525	228.102021	-3740.630529	935.540352
291.32	-0.000036	-0.000475	10.626955	267.469425	-4660.000906	923.000104
291.83	-0.000033	-0.000464	10.627136	150.195615	-1956.218494	926.986887
292.34	-0.000034	-0.000417	10.627584	238.197474	-3971.651506	936.849962
292.85	-0.000034	-0.000389	10.627662	164.286605	-2268.440430	938.574759
293.36	-0.000030	-0.000332	10.627135	136.637997	-1644.145460	926.969060
293.87	-0.000030	-0.000311	10.627093	95.254992	-692.485882	926.050414
294.38	-0.000030	-0.000270	10.627472	36.545266	667.721143	934.377255
294.89	-0.000024	-0.000259	10.627726	5.463471	1389.069750	939.963631
295.40	-0.000029	-0.000230	10.627361	21.934493	1001.501912	931.940753
295.91	-0.000023	-0.000245	10.627296	-12.914592	1802.220860	930.514612
296.42	-0.000027	-0.000253	10.627001	57.416684	176.422644	924.031572
296.93	-0.000027	-0.000303	10.627084	110.174765	-1036.137804	925.855956
297.44	-0.000029	-0.000332	10.627147	129.716687	-1484.530926	927.244107
297.95	-0.000026	-0.000389	10.626842	229.060681	-3778.447988	920.516890
298.46	-0.000031	-0.000395	10.626880	224.607547	-3675.061880	921.352958
298.97	-0.000028	-0.000421	10.626657	212.025543	-3390.556163	916.461622
299.48	-0.000024	-0.000413	10.626755	355.802581	-6697.992740	918.619026
299.99	-0.000025	-0.000452	10.627096	207.462185	-3275.404000	926.101036
300.50	-0.000029	-0.000469	10.627581	335.846320	-6219.569025	936.778915
301.01	-0.000026	-0.000523	10.627387	303.395417	-5477.040660	932.505111
301.52	-0.000031	-0.000536	10.627624	519.855633	-10454.402645	937.730721
302.03	-0.000023	-0.000561	10.627561	321.266296	-5884.389802	936.351615
302.54	-0.000027	-0.000515	10.627455	288.632218	-5135.625331	934.004194
303.05	-0.000026	-0.000477	10.627538	215.027193	-3439.347319	935.831420
303.56	-0.000025	-0.000383	10.627609	106.665844	-943.257318	937.404225
304.07	-0.000023	-0.000310	10.627517	61.716321	89.335454	935.372549
304.58	-0.000028	-0.000236	10.626993	-30.937697	2210.121620	923.851627
305.09	-0.000028	-0.000214	10.626671	-115.435299	4147.795575	916.762259
305.60	-0.000025	-0.000181	10.626818	-117.027185	4187.836776	920.002227
306.11	-0.000026	-0.000201	10.627197	-126.174201	4407.138447	928.339837
306.62	-0.000025	-0.000198	10.627509	-116.420250	4189.785017	935.188096
307.13	-0.000026	-0.000216	10.627522	-87.155156	3516.413101	935.474765
307.64	-0.000034	-0.000210	10.627383	-70.071350	3119.945986	932.418705
308.15	-0.000029	-0.000213	10.627734	-54.715408	2774.552637	940.140741
308.66	-0.000036	-0.000175	10.628128	13.993858	1201.988868	948.821316
309.18	-0.000031	-0.000159	10.627491	-98.655318	3780.430065	934.794788
309.69	-0.000032	-0.000125	10.627103	-174.299075	5512.786927	926.270175
310.20	-0.000038	-0.000138	10.627255	-169.124170	5397.152157	929.599089
310.71	-0.000037	-0.000156	10.627144	-161.351525	5215.670142	927.158643
311.22	-0.000038	-0.000212	10.627288	-94.050920	3669.772385	930.343856
311.73	-0.000037	-0.000247	10.627534	-29.045237	2179.028168	935.747138
312.24	-0.000028	-0.000293	10.627819	-7.732887	1695.006592	942.025193
312.75	-0.000032	-0.000304	10.627678	63.427486	53.656016	938.912484
313.26	-0.000026	-0.000323	10.627300	65.509858	-2.986533	930.606775
313.77	-0.000025	-0.000312	10.626948	53.022094	276.354757	922.858423
314.28	-0.000030	-0.000328	10.626954	29.380368	820.724749	922.997261
314.79	-0.000030	-0.000319	10.627172	67.117282	-42.946411	927.785567
315.30	-0.000028	-0.000338	10.627312	56.350835	208.118630	930.862020
315.81	-0.000034	-0.000321	10.627405	60.287785	119.627508	932.899677
316.32	-0.000024	-0.000322	10.627683	28.452879	858.874822	939.022478
316.83	-0.000027	-0.000312	10.628074	69.553738	-78.227468	947.631884
317.34	-0.000026	-0.000326	10.627961	11.544141	1254.516537	945.135432
317.85	-0.000024	-0.000322	10.627564	55.301404	238.093129	936.410844
318.36	-0.000025	-0.000346	10.627743	31.596417	787.892317	940.339508
318.87	-0.000024	-0.000338	10.627760	88.406207	-519.443368	940.727022
319.38	-0.000022	-0.000366	10.627595	112.256456	-1072.271937	937.098379
319.89	-0.000025	-0.000357	10.627278	164.346083	-2278.667571	930.125106
320.40	-0.000017	-0.000379	10.627301	211.463682	-3362.767286	930.631906
320.91	-0.000026	-0.000366	10.627764	235.330663	-3901.505104	940.811909
321.42	-0.000027	-0.000389	10.627667	225.425596	-3675.739958	938.669328
321.93	-0.000023	-0.000382	10.627794	214.213963	-3414.717913	941.468164
322.44	-0.000024	-0.000419	10.627764	144.533210	-1811.390280	940.800958
322.95	-0.000026	-0.000426	10.626906	213.840524	-3426.593817	921.939507
323.46	-0.000021	-0.000459	10.626803	236.163786	-3942.854373	919.662818
323.97	-0.000031	-0.000457	10.626839	280.664039	-4966.407311	920.452324
324.48	-0.000022	-0.000451	10.627113	224.023406	-3656.235375	926.484758
324.99	-0.000032	-0.000399	10.627175	188.500922	-2837.082142	927.856284
325.50	-0.000027	-0.000367	10.627012	98.803397	-776.045564	924.260294
326.01	-0.000028	-0.000311	10.627196	63.362849	44.021112	928.302353
326.52	-0.000026	-0.000293	10.627040	23.241268	964.023252	924.884577
327.03	-0.000022	-0.000267	10.627350	-4.009325	1598.473751	931.706122
327.54	-0.000018	-0.000270	10.627813	45.053763	479.721148	941.877512
328.05	-0.000026	-0.000251	10.627397	17.693734	1099.956760	932.736342
328.56	-0.000026	-0.000256	10.626979	23.784693	950.103005	923.538816
329.07	-0.000029	-0.000226	10.626732	57.786368	161.709410	918.114290
329.58	-0.000027	-0.000226	10.626824	-6.122427	1634.982592	920.131398
330.09	-0.000027	-0.000180	10.626436	-11.450891	1748.691892	911.593823
330.60	-0.000029	-0.000183	10.626745	-45.689871	2543.982160	918.386272
331.11	-0.000028	-0.000155	10.627680	-92.208699	3636.391925	938.954609
331.62	-0.000020	-0.000166	10.627637	-94.349206	3684.675266	938.009863
332.13	-0.000025	-0.000150	10.627332	-92.585954	3637.048451	931.296886
332.64	-0.000025	-0.000179	10.627224	-90.031528	3575.760947	928.925980
333.15	-0.000030	-0.000188	10.627174	-48.285194	2613.631021	927.835098
333.66	-0.000031	-0.000226	10.627567	56.725652	205.364006	936.464812
334.17	-0.000032	-0.000226	10.628012	44.594213	494.892754	946.258720
334.69	-0.000030	-0.000234	10.627797	3.618299	1433.184247	941.527327
335.20	-0.000031	-0.000186	10.627431	-34.391397	2299.709607	933.471754
335.71	-0.000027	-0.000177	10.627221	-97.992618	3758.944464	928.851517
336.22	-0.000028	-0.000142	10.627089	-78.571980	3308.843766	925.947580
336.73	-0.000026	-0.000162	10.627353	-81.385204	3379.711802	931.774596
337.24	-0.000028	-0.000165	10.627522	-62.382447	2946.154326	935.475263
