Length [m]	OTDR [V]	Brillouin intensity [V]	Fitted Frequency [GHz]	Temperature [”]	Compensated Strain [レュ]	Uncompensated Strain [レュ]
0.51	0.006990	0.049037	10.465441	-142.408520	985.802998	-2630.287865
1.02	0.007059	0.052614	10.443439	-121.403773	-5.162949	-3114.341156
1.53	0.007035	0.055640	10.435095	-87.220650	-984.477916	-3297.902226
2.04	0.007080	0.058253	10.432465	-47.901058	-1950.261238	-3355.765872
2.55	0.007077	0.060502	10.432490	-21.706748	-2552.664286	-3355.211652
3.06	0.007089	0.062420	10.431994	-12.122674	-2784.742677	-3366.139850
3.57	0.007020	0.063998	10.431755	-19.542867	-2619.443151	-3371.396617
4.08	0.007006	0.065266	10.431795	-22.695345	-2545.934305	-3370.500050
4.59	0.006954	0.066253	10.432264	-12.823634	-2762.382094	-3360.202061
5.10	0.006983	0.067048	10.432283	10.221889	-3292.427306	-3359.768177
5.61	0.007012	0.067680	10.431601	28.782282	-3735.421496	-3374.782929
6.12	0.007072	0.068169	10.430735	35.629072	-3913.009614	-3393.839440
6.63	0.007057	0.068505	10.430545	25.604411	-3686.624811	-3398.017023
7.14	0.007057	0.068735	10.429827	11.119716	-3369.737883	-3413.800138
7.65	0.007001	0.068857	10.430621	0.295322	-3102.265613	-3396.345178
8.16	0.006997	0.068918	10.431676	6.354455	-3217.400737	-3373.123268
8.67	0.006991	0.068960	10.431698	23.137770	-3603.249676	-3372.648954
9.18	0.007064	0.069009	10.431901	43.108888	-4058.286221	-3368.173468
9.69	0.007087	0.069039	10.431457	51.685421	-4265.969453	-3377.955172
10.20	0.007115	0.069046	10.431413	51.592229	-4264.818515	-3378.903655
10.71	0.007062	0.069013	10.431068	43.414424	-4084.524400	-3386.493063
11.22	0.007025	0.068938	10.430896	40.623156	-4024.241013	-3390.280685
11.73	0.006958	0.068832	10.429915	43.945604	-4123.351262	-3411.866263
12.24	0.006966	0.068732	10.429123	53.951580	-4371.960236	-3429.298716
12.75	0.006987	0.068664	10.429311	56.843225	-4434.188166	-3425.161858
13.26	0.007046	0.068650	10.430065	54.939715	-4372.969657	-3408.563574
13.77	0.007049	0.068661	10.430600	45.903241	-4152.613794	-3396.793020
14.28	0.007058	0.068688	10.431814	38.447624	-3952.987079	-3370.082761
14.79	0.006997	0.068716	10.432500	32.264046	-3794.826499	-3354.995118
15.30	0.006969	0.068736	10.431501	30.529855	-3777.950165	-3376.977050
15.81	0.006923	0.068743	10.430209	28.088435	-3751.552992	-3405.406724
16.32	0.006923	0.068776	10.430540	28.206969	-3746.639424	-3398.116815
16.83	0.006880	0.068811	10.430939	24.582321	-3654.005798	-3389.345212
17.34	0.006841	0.068834	10.430987	23.634731	-3631.089099	-3388.292575
17.85	0.006720	0.068834	10.431287	25.595851	-3669.296682	-3381.675592
18.36	0.006619	0.068809	10.430943	31.445820	-3811.910276	-3389.258482
18.87	0.006480	0.068756	10.431695	33.449078	-3840.676852	-3372.710386
19.38	0.006393	0.068697	10.433005	37.287617	-3898.823230	-3343.887698
19.89	0.006321	0.068643	10.432980	37.032204	-3893.515598	-3344.433213
20.40	0.006307	0.068597	10.433579	41.295313	-3977.851227	-3331.269624
20.91	0.006264	0.068565	10.434572	37.982451	-3878.684851	-3309.420028
21.42	0.006260	0.068519	10.435034	45.002917	-4029.629724	-3299.247736
21.93	0.006207	0.068451	10.434607	47.231219	-4090.777868	-3308.646919
22.44	0.006192	0.068367	10.434470	45.424743	-4052.344990	-3311.653234
22.95	0.006153	0.068263	10.434094	46.166812	-4078.103864	-3319.929988
23.46	0.006160	0.068190	10.434580	38.040615	-3879.836161	-3309.241080
23.97	0.006150	0.068140	10.434856	37.396885	-3858.640849	-3303.158143
24.48	0.006192	0.068144	10.434012	33.669950	-3792.329431	-3321.741507
24.99	0.006196	0.068174	10.434012	32.078876	-3755.687976	-3321.726748
25.50	0.006227	0.068223	10.434475	34.550504	-3801.922626	-3311.556793
26.02	0.006202	0.068267	10.434498	34.306844	-3795.773853	-3311.041878
26.53	0.006204	0.068298	10.434836	33.921412	-3779.098701	-3303.598889
27.04	0.006169	0.068316	10.434794	32.279061	-3742.260015	-3304.521976
27.55	0.006190	0.068327	10.435319	33.935346	-3768.285962	-3292.978605
28.06	0.006182	0.068318	10.435945	28.609007	-3631.233815	-3279.202637
28.57	0.006215	0.068309	10.435912	35.514213	-3790.968996	-3279.946409
29.08	0.006209	0.068298	10.435770	34.188370	-3763.703070	-3283.050921
29.59	0.006221	0.068295	10.435605	38.659435	-3870.446983	-3286.696280
30.10	0.006182	0.068273	10.435033	39.363326	-3899.833213	-3299.271530
30.61	0.006184	0.068239	10.435222	41.539034	-3945.567472	-3295.122219
31.12	0.006148	0.068183	10.435339	37.952304	-3860.291524	-3292.536535
31.63	0.006166	0.068128	10.435669	43.142555	-3972.162813	-3285.280623
32.14	0.006164	0.068036	10.436637	35.009980	-3762.632281	-3263.988098
32.65	0.006190	0.067978	10.437125	41.140419	-3892.485121	-3253.239709
33.16	0.006187	0.067891	10.437889	35.494205	-3744.903520	-3236.443647
33.67	0.006204	0.067879	10.439067	38.869077	-3795.412448	-3210.517016
34.18	0.006171	0.067817	10.439357	34.255053	-3682.530158	-3204.155396
34.69	0.006183	0.067851	10.439472	39.526945	-3801.224863	-3201.615672
35.20	0.006163	0.067807	10.439747	35.564909	-3703.683055	-3195.570693
35.71	0.006197	0.067852	10.440108	37.101567	-3730.731851	-3187.629867
36.22	0.006192	0.067809	10.440475	34.458895	-3661.429067	-3179.550888
36.73	0.006213	0.067840	10.440561	34.775908	-3666.739647	-3177.655518
37.24	0.006195	0.067785	10.441020	33.836826	-3634.546032	-3167.566753
37.75	0.006203	0.067784	10.441566	37.501690	-3706.315020	-3155.552396
38.26	0.006176	0.067710	10.441617	37.857388	-3713.317513	-3154.421480
38.77	0.006186	0.067693	10.441177	40.593964	-3786.473251	-3164.113826
39.28	0.006176	0.067631	10.440491	38.673462	-3758.084187	-3179.204821
39.79	0.006209	0.067628	10.440082	37.088296	-3731.018773	-3188.194964
40.30	0.006192	0.067602	10.440494	33.714626	-3643.855669	-3179.130605
40.81	0.006210	0.067612	10.440805	34.587047	-3656.777901	-3172.300072
41.32	0.006182	0.067617	10.441876	34.611730	-3632.643956	-3148.736569
41.83	0.006190	0.067636	10.442213	37.739112	-3696.848024	-3141.308333
42.34	0.006162	0.067632	10.442096	37.904980	-3703.374161	-3143.891428
42.85	0.006182	0.067642	10.442879	38.298222	-3694.360839	-3126.658535
43.36	0.006166	0.067626	10.441938	34.269453	-3623.327900	-3147.365850
43.87	0.006190	0.067627	10.440273	33.073240	-3634.197757	-3184.001804
44.38	0.006171	0.067626	10.440592	31.604230	-3593.016175	-3176.975839
44.89	0.006186	0.067626	10.441346	34.399080	-3639.968664	-3160.393144
45.40	0.006167	0.067622	10.442252	36.356191	-3664.109867	-3140.446207
45.91	0.006183	0.067609	10.443378	39.924854	-3720.299034	-3115.682595
46.42	0.006167	0.067576	10.442848	39.254450	-3717.084754	-3127.337602
46.93	0.006192	0.067554	10.442457	38.021251	-3697.722593	-3135.947211
47.44	0.006170	0.067533	10.443455	34.715974	-3598.614375	-3113.986536
47.95	0.006193	0.067551	10.442803	34.661359	-3612.397823	-3128.333899
48.46	0.006171	0.067579	10.442674	34.349525	-3608.200248	-3131.177239
48.97	0.006183	0.067613	10.446683	37.802639	-3595.229589	-3042.979033
49.48	0.006163	0.067604	10.468670	39.264082	-3121.787999	-2559.269486
49.99	0.006174	0.067534	10.520609	41.376371	-1972.518374	-1416.592506
50.50	0.006153	0.067340	10.554485	40.289168	-1166.225613	-671.339174
51.01	0.006170	0.066976	10.562554	40.617823	-987.685802	-493.812334
51.53	0.006154	0.066384	10.565973	39.377019	-880.269575	-418.593740
52.04	0.006173	0.065563	10.567935	41.473943	-883.285107	-375.424811
52.55	0.006158	0.064544	10.568780	41.277741	-859.278149	-356.832761
53.06	0.006181	0.063442	10.569192	42.787720	-884.539008	-347.772258
53.57	0.006164	0.062341	10.569100	41.230625	-850.825101	-349.803976
54.08	0.006180	0.061319	10.569386	39.282904	-799.380371	-343.499743
54.59	0.006160	0.060438	10.569771	34.668686	-684.281784	-335.028231
55.10	0.006177	0.059709	10.569491	32.686392	-645.107129	-341.187684
55.61	0.006156	0.059129	10.569042	29.316629	-577.901301	-351.074859
56.12	0.006176	0.058686	10.569428	29.653592	-576.747735	-342.575242
56.63	0.006158	0.058346	10.569414	28.394193	-548.085938	-342.889202
57.14	0.006167	0.058078	10.569382	29.069508	-564.371496	-343.595146
57.65	0.006146	0.057860	10.569826	27.235022	-511.900565	-333.825538
58.16	0.006164	0.057683	10.569917	26.733424	-498.265823	-331.833657
58.67	0.006138	0.057537	10.569889	23.325001	-420.446708	-332.445713
59.18	0.006154	0.057436	10.570362	22.413703	-388.559226	-322.038862
59.69	0.006141	0.057359	10.570611	20.164764	-331.045192	-316.559425
60.20	0.006162	0.057318	10.570326	21.338173	-364.634901	-322.834435
60.71	0.006147	0.057293	10.570243	21.041023	-359.697495	-324.649606
61.22	0.006165	0.057268	10.570026	22.944801	-408.541046	-329.437479
61.73	0.006142	0.057239	10.570244	21.551349	-371.428100	-324.633454
62.24	0.006158	0.057214	10.570851	21.867038	-364.694814	-311.278466
62.75	0.006135	0.057181	10.570676	19.751588	-320.043275	-315.137391
63.26	0.006157	0.057188	10.570767	20.111913	-326.225720	-313.122634
63.77	0.006144	0.057197	10.570684	19.458561	-313.107991	-314.956242
64.28	0.006192	0.057214	10.570819	21.872889	-365.572335	-311.987064
64.79	0.006264	0.057229	10.570951	21.858328	-362.176776	-309.067752
65.30	0.006533	0.057237	10.571067	24.019037	-409.248545	-306.523687
65.81	0.007051	0.057223	10.571601	22.848354	-369.993408	-294.784529
66.32	0.007995	0.057217	10.571365	22.929237	-377.288918	-299.967678
66.83	0.009224	0.057193	10.571274	21.239964	-340.511375	-301.979401
67.34	0.010541	0.057177	10.571503	21.326505	-337.205285	-296.925405
67.85	0.011485	0.057151	10.571808	20.186229	-303.937652	-290.230067
68.36	0.011885	0.057152	10.571052	22.088217	-365.149120	-306.855065
68.87	0.011646	0.057148	10.571011	21.363430	-349.415620	-307.762088
69.38	0.010995	0.057163	10.571552	22.656299	-366.703915	-295.863929
69.89	0.010090	0.057185	10.571869	20.800920	-316.683437	-288.890590
70.40	0.009213	0.057219	10.571394	21.316051	-339.483036	-299.327721
70.91	0.008418	0.057237	10.570780	20.214405	-328.295479	-312.846411
71.42	0.007828	0.057257	10.570965	21.355782	-350.306381	-308.779721
71.93	0.007357	0.057245	10.571575	20.842543	-324.413381	-295.350257
72.44	0.007053	0.057227	10.571866	22.316931	-351.634879	-288.941527
72.95	0.006806	0.057201	10.571726	21.511052	-336.308814	-292.017861
73.46	0.006663	0.057162	10.571527	21.853096	-348.783248	-296.406498
73.97	0.006524	0.057133	10.571903	19.745168	-291.581244	-288.128300
74.48	0.006458	0.057113	10.572284	20.616621	-302.869084	-279.759951
74.99	0.006379	0.057104	10.572262	19.547264	-278.755400	-280.239335
75.50	0.006360	0.057103	10.572156	21.167148	-318.487835	-282.569984
76.01	0.006314	0.057090	10.572072	20.603517	-307.456346	-284.423510
76.52	0.006310	0.057064	10.572061	22.068586	-341.426101	-284.656629
77.03	0.006273	0.057038	10.572360	20.768191	-304.589605	-278.072905
77.55	0.006271	0.057013	10.572138	21.526153	-327.156900	-282.956198
78.06	0.006244	0.057005	10.571723	20.083613	-303.540301	-292.104337
78.57	0.006247	0.057010	10.571913	21.182624	-324.445507	-287.913196
79.08	0.006225	0.057028	10.572179	20.449045	-301.415391	-282.052992
79.59	0.006240	0.057037	10.572351	21.585479	-323.622453	-278.281960
80.10	0.006221	0.057036	10.572294	20.666666	-303.787914	-279.537508
80.61	0.006245	0.057016	10.572297	21.509269	-323.100332	-279.457368
81.12	0.006230	0.056984	10.572540	19.831784	-278.893516	-274.123439
81.63	0.006249	0.056963	10.572789	20.967083	-299.280120	-268.640776
82.14	0.006235	0.056947	10.572564	19.513105	-271.010597	-273.601629
82.65	0.006256	0.056955	10.572296	20.871094	-308.434916	-279.481378
83.16	0.006239	0.056980	10.572612	20.339734	-288.926668	-272.540254
83.67	0.006263	0.057016	10.572825	21.730672	-316.040178	-267.860975
84.18	0.006248	0.057059	10.572717	21.341096	-309.546369	-270.221029
84.69	0.006266	0.057110	10.572912	22.898437	-340.911596	-265.943488
85.20	0.006246	0.057148	10.573129	22.132639	-318.266577	-261.158125
85.71	0.006276	0.057189	10.572569	23.347258	-359.149043	-273.484813
86.22	0.006256	0.057192	10.572143	22.257283	-343.869804	-282.844172
86.73	0.006261	0.057182	10.571999	23.041203	-365.253101	-286.028034
87.24	0.006205	0.057128	10.571893	21.372474	-329.268698	-288.345235
87.75	0.006165	0.057074	10.572284	22.044730	-335.738495	-279.755019
88.26	0.006147	0.056999	10.572185	20.625997	-305.356557	-281.926898
88.77	0.006862	0.056965	10.572428	21.540263	-320.798930	-276.581477
89.28	0.010591	0.057013	10.572959	20.868926	-293.107974	-264.908521
89.79	0.010591	0.057167	10.572728	23.091314	-349.589093	-269.985700
90.30	0.010591	0.057313	10.572608	22.831623	-346.384068	-272.630858
90.81	0.010591	0.057361	10.572850	24.229211	-372.973681	-267.305788
91.32	0.010591	0.057276	10.573180	23.159469	-340.739706	-260.047627
91.83	0.010591	0.057191	10.573195	23.797030	-355.054224	-259.702409
92.34	0.010591	0.057119	10.572590	22.304130	-334.657982	-273.028276
92.85	0.010591	0.057078	10.572925	23.590918	-356.553410	-265.658395
93.36	0.010591	0.057063	10.573434	22.512846	-319.987877	-254.451284
93.87	0.010591	0.057062	10.572808	23.279753	-352.081273	-268.225156
94.38	0.010591	0.057038	10.573000	21.894855	-315.771844	-263.999768
94.89	0.010591	0.056976	10.573206	22.394350	-322.526784	-259.475159
95.40	0.010591	0.056866	10.573429	20.670505	-277.703132	-254.570812
95.91	0.010591	0.056783	10.573176	21.477013	-302.094146	-260.127773
96.42	0.010591	0.056742	10.572453	20.287198	-291.387364	-276.041149
96.93	0.010591	0.056758	10.572776	21.711848	-316.735198	-268.937308
97.44	0.010591	0.056781	10.573331	20.573908	-277.729359	-256.716956
97.95	0.010591	0.056788	10.573099	21.380014	-301.637164	-261.821802
98.46	0.010591	0.056752	10.569291	18.340394	-319.483727	-345.591435
98.97	0.010591	0.056706	10.562810	13.965643	-368.249015	-488.172169
99.48	0.010591	0.056678	10.557648	-0.782992	-147.791805	-601.735836
99.99	0.008720	0.056720	10.552158	-25.446611	293.320983	-722.533877
100.50	0.005489	0.056800	10.545141	-62.168653	976.828731	-876.895837
101.01	0.003182	0.056923	10.541063	-98.648306	1722.523076	-966.615172
101.52	0.001462	0.057044	10.540567	-128.338156	2394.530714	-977.530285
102.03	0.001448	0.057155	10.540894	-145.339449	2793.445276	-970.327719
102.54	0.001390	0.057247	10.542304	-151.581115	2969.637550	-939.315057
103.06	0.001274	0.057338	10.544030	-147.408214	2913.388597	-901.340283
103.57	0.001169	0.057435	10.545152	-135.664326	2668.935671	-876.646210
104.08	0.000809	0.057535	10.546894	-116.976442	2278.912306	-838.332300
104.59	0.000752	0.057599	10.549172	-95.481156	1836.643763	-788.208797
105.10	0.000174	0.057619	10.549242	-72.328416	1305.293861	-786.665141
105.61	0.000156	0.057576	10.545872	-52.398860	768.792684	-860.811802
106.12	-0.000055	0.057503	10.543399	-34.371846	296.770466	-915.228772
106.63	-0.000515	0.057453	10.542464	-21.466835	-21.853906	-935.790622
107.14	-0.000622	0.057432	10.542629	-10.035274	-281.209067	-932.170100
107.65	-0.000622	0.057462	10.542677	-2.820438	-446.178475	-931.107787
108.16	-0.000622	0.057507	10.542837	4.650390	-614.470892	-927.594085
108.67	-0.000622	0.057517	10.542705	8.221895	-699.732394	-930.500324
109.18	-0.000622	0.057507	10.542519	12.451365	-801.363273	-934.573424
109.69	-0.000622	0.057463	10.542335	13.241577	-823.806201	-938.629936
110.20	-0.000622	0.057433	10.541932	15.639912	-888.310488	-947.496893
110.71	-0.000622	0.057421	10.542064	15.774070	-888.363000	-944.601066
111.22	-0.000622	0.057443	10.542264	18.056220	-936.269678	-940.186740
111.73	-0.000622	0.057457	10.541680	18.207120	-953.211499	-953.034085
112.24	-0.000622	0.057461	10.541908	19.833476	-985.396890	-948.023450
112.75	-0.000842	0.057433	10.541905	19.473204	-977.164197	-948.081305
113.26	-0.000842	0.057384	10.541675	20.428662	-1004.477213	-953.154839
113.77	-0.000842	0.057335	10.541643	19.241317	-977.873910	-953.850191
114.28	-0.000842	0.057298	10.541580	20.115712	-999.462710	-955.243405
114.79	-0.000842	0.057274	10.541878	18.602592	-957.745908	-948.675481
115.30	-0.000842	0.057268	10.542010	19.402288	-973.128816	-945.789130
115.81	-0.000842	0.057267	10.541484	18.296267	-959.784410	-957.346490
116.32	-0.000842	0.057277	10.541402	19.170538	-981.817275	-959.165992
116.83	-0.000842	0.057275	10.541103	17.981806	-961.349686	-965.744725
117.34	-0.000660	0.057283	10.540917	19.010460	-989.301580	-969.820397
117.85	-0.000622	0.057288	10.541062	17.638881	-954.385937	-966.632109
118.36	-0.000515	0.057289	10.541557	18.491461	-962.608958	-955.754654
118.87	-0.000515	0.057283	10.541365	17.433103	-942.654087	-959.959618
119.38	-0.000515	0.057277	10.540927	18.545942	-978.380369	-969.602754
119.89	-0.000515	0.057260	10.540963	16.736964	-935.919905	-968.822060
120.40	-0.000515	0.057255	10.541734	17.831330	-943.311114	-951.841862
120.91	-0.000515	0.057259	10.541843	17.562136	-934.620229	-949.462701
121.42	-0.000515	0.057268	10.541511	20.869644	-1018.400823	-956.753294
121.93	-0.000515	0.057269	10.541153	23.216492	-1080.676135	-964.624618
122.44	-0.000515	0.057274	10.541238	24.302862	-1103.742411	-962.772528
122.95	-0.000472	0.057276	10.541578	-13.614404	-223.056625	-955.290762
123.46	-0.000413	0.057269	10.541567	-128.491865	2421.144730	-955.518272
123.97	-0.000298	0.057266	10.541288	-128.503653	2414.980304	-961.657398
124.48	-0.000199	0.057225	10.541052	-128.654664	2413.007088	-966.855636
124.99	0.000000	0.057051	10.541535	-129.295280	2438.886604	-956.236046
125.50	0.000000	0.056568	10.543290	-131.078425	2520.405411	-917.630150
126.01	0.000000	0.055432	10.544756	-135.268057	2650.660378	-885.377611
126.52	0.000000	0.053256	10.546552	-143.297472	2876.919634	-845.862208
127.03	0.000000	0.049753	10.542917	-156.224063	3090.646380	-925.836624
127.54	0.000000	0.044957	10.544720	-173.919988	3539.605073	-886.149826
128.05	0.000000	0.039191	10.565307	-195.194545	4504.128273	-433.245059
128.56	0.000000	0.032995	10.550633	-218.054985	4691.950291	-756.063234
129.08	0.000000	0.026876	10.537390	-240.635331	4906.308540	-1047.417890
129.59	0.000084	0.021234	10.570961	-261.453421	6159.787433	-308.853457
130.10	0.000065	0.016295	10.591816	-279.676022	7060.246819	149.957087
130.61	0.000061	0.012133	10.591588	-295.032053	7408.463697	144.926479
131.12	-0.000110	0.008742	10.591747	-307.543770	7700.146634	148.424917
131.63	-0.000161	0.006056	10.592218	-317.454707	7939.172481	158.802896
132.14	-0.000364	0.003982	10.593394	-325.105879	8142.406110	184.659720
132.65	-0.000427	0.002425	10.590120	-330.850610	8199.151213	112.643093
133.16	-0.000622	0.001269	10.590148	-335.115915	8297.986416	113.262501
133.67	-0.000601	0.000432	10.590112	-338.206925	8368.311636	112.471927
134.18	-0.000726	-0.000185	10.590111	-340.627521	8424.003006	112.443387
134.69	-0.000675	-0.000631	10.590097	-344.288620	8507.962166	112.139948
135.20	-0.000647	-0.000963	10.590119	-351.620907	8677.245735	112.613892
135.71	-0.000668	-0.001198	10.590104	-371.832911	9142.185307	112.295420
136.22	-0.000544	-0.001366	10.593291	-376.660781	9326.824570	182.410653
136.73	-0.000498	-0.001457	10.592042	-380.767087	9392.537861	154.926283
137.24	-0.000458	-0.001500	10.593849	-385.814877	9550.407797	194.676978
137.75	-0.000468	-0.001494	10.594844	-389.738483	9663.680545	216.571652
138.26	-0.000307	-0.001466	10.594881	-410.602172	10144.814523	217.391056
138.77	-0.000515	-0.001414	10.594890	-413.276098	10206.560039	217.574825
139.28	-0.000293	-0.001340	10.594895	-641.583946	15462.252245	217.692771
139.79	-0.000470	-0.001250	10.594900	-653.007680	15725.333327	217.798306
140.30	-0.000351	-0.001168	10.592167	492.651735	-10710.386236	157.672014
140.81	-0.000441	-0.001092	10.592148	-257.001983	6545.941975	157.248533
141.32	-0.000342	-0.001046	10.594888	-274.108006	7002.926059	217.544189
141.83	-0.000368	-0.001022	10.594913	-275.633613	7038.621090	218.093732
142.34	-0.000330	-0.001019	10.594919	-275.831254	7043.291000	218.208451
142.85	-0.000243	-0.001037	10.592042	-274.723757	6951.453253	154.923020
143.36	-0.000314	-0.001074	10.592445	-272.364553	6906.444111	163.793317
143.87	-0.000155	-0.001124	10.590085	-269.245913	6780.230248	111.878136
144.38	-0.000282	-0.001184	10.590085	-265.472758	6693.353467	111.859019
144.89	-0.000117	-0.001220	10.590099	-263.197070	6641.294018	112.170081
145.40	-0.000271	-0.001247	10.590103	-261.542223	6603.292371	112.258209
145.91	-0.000170	-0.001240	10.591569	-261.936683	6646.198130	144.524444
146.42	-0.000292	-0.001214	10.591105	-263.573795	6673.179567	134.313541
146.93	-0.000296	-0.001177	10.591330	-285.177693	7175.671601	139.252559
147.44	-0.000338	-0.001145	10.592938	-286.676791	7247.270551	174.633120
147.95	-0.000442	-0.001108	10.590121	-288.379514	7221.489522	112.651099
148.46	-0.000390	-0.001078	10.590098	-289.777297	7253.141346	112.150626
148.97	-0.000527	-0.001051	10.590078	-291.049542	7281.980673	111.723929
149.48	-0.000436	-0.001044	10.590079	-291.379092	7289.570138	111.727102
149.99	-0.000548	-0.001046	10.590066	-291.268431	7286.744177	111.461367
150.50	-0.000428	-0.001064	10.590068	-290.460731	7268.183111	111.491806
151.01	-0.000460	-0.001072	10.590073	-290.069407	7259.289039	111.600618
151.52	-0.000360	-0.001073	10.590073	-276.251290	6941.212405	111.611773
152.03	-0.000305	-0.001064	10.590075	-272.982174	6865.995087	111.646708
152.54	-0.000258	-0.001060	10.590077	-259.423658	6553.933938	111.695597
153.05	-0.000144	-0.001042	10.590075	-260.729396	6583.948857	111.654832
153.56	-0.000196	-0.001035	10.590096	-261.266793	6596.788697	112.102365
154.07	-0.000053	-0.001018	10.590104	-262.563037	6626.811879	112.277972
154.59	-0.000180	-0.001013	10.590131	-262.959460	6636.578036	112.889062
155.10	-0.000071	-0.001007	10.590144	-263.403176	6647.093261	113.176221
155.61	-0.000203	-0.000985	10.590120	-265.074413	6685.000069	112.637751
156.12	-0.000144	-0.000956	10.590112	-267.310626	6736.300649	112.469603
156.63	-0.000257	-0.000919	10.590096	-270.062081	6799.272279	112.120546
157.14	-0.000270	-0.000886	10.590103	-266.468066	6716.692608	112.266809
157.65	-0.000324	-0.000877	10.590089	-256.755928	6492.790052	111.949664
158.16	-0.000392	-0.000872	10.590090	-225.454647	5772.274342	111.977397
158.67	-0.000368	-0.000873	10.590089	-168.082054	4451.566190	111.967203
159.18	-0.000434	-0.000868	10.590109	-Inf	Inf	112.404303
159.69	-0.000370	-0.000856	10.590096	-Inf	Inf	112.115575
160.20	-0.000396	-0.000850	10.590089	-Inf	Inf	111.952120
160.71	-0.000330	-0.000863	10.590084	-Inf	Inf	111.841999
161.22	-0.000326	-0.000879	10.591714	-Inf	Inf	147.713824
161.73	-0.000274	-0.000893	10.592607	-Inf	Inf	167.357788
162.24	-0.000229	-0.000904	10.590171	-Inf	Inf	113.758123
162.75	-0.000214	-0.000896	10.594866	-Inf	Inf	217.055034
163.26	-0.000149	-0.000899	10.594879	-Inf	Inf	217.330707
163.77	-0.000164	-0.000857	10.593322	-739.058619	17669.804974	183.084226
164.28	-0.000098	-0.000869	10.592492	-864.994009	20549.656085	164.827933
164.79	-0.000184	-0.000806	10.592235	-856.294967	20343.471125	159.165567
165.30	-0.000109	-0.000814	10.592397	-50.541917	1799.041269	162.723363
165.81	-0.000211	-0.000743	10.594903	-159.507116	4365.191486	217.867305
166.32	-0.000193	-0.000750	10.594923	-259.363940	6664.321582	218.306260
166.83	-0.000236	-0.000693	10.594929	-276.466450	7058.143981	218.428790
167.34	-0.000255	-0.000716	10.594925	-294.804784	7480.209815	218.355985
167.85	-0.000275	-0.000682	10.594929	-295.471012	7495.620663	218.427045
168.36	-0.000291	-0.000724	10.594881	-300.831107	7617.910607	217.380031
168.87	-0.000304	-0.000731	10.594896	-297.481627	7541.149162	217.706681
169.38	-0.000310	-0.000776	10.593912	-292.900781	7413.003368	196.056584
169.89	-0.000289	-0.000788	10.594523	-293.732615	7446.244622	209.499700
170.40	-0.000308	-0.000807	10.594878	-281.743194	7178.446979	217.316686
170.91	-0.000267	-0.000785	10.594886	-278.270397	7098.681336	217.485492
171.42	-0.000240	-0.000761	10.594878	-274.871269	7020.249879	217.309308
171.93	-0.000257	-0.000720	10.594856	-279.651021	7129.768798	216.823460
172.44	-0.000193	-0.000679	10.594884	-253.409908	6526.371977	217.457448
172.95	-0.000207	-0.000653	10.592649	-290.241292	7322.652362	168.268879
173.46	-0.000198	-0.000641	10.592736	-254.185688	6494.685874	170.196877
173.97	-0.000186	-0.000640	10.593519	-286.582012	7258.491736	187.418277
174.48	-0.000171	-0.000627	10.594895	-269.914306	6906.539598	217.688311
174.99	-0.000211	-0.000612	10.594893	-285.519339	7265.721021	217.649098
175.50	-0.000171	-0.000589	10.592187	-272.453629	6902.550342	158.123042
176.01	-0.000209	-0.000564	10.594175	-279.896214	7119.710003	201.844239
176.52	-0.000203	-0.000560	10.594707	-273.555254	6986.024994	213.559826
177.03	-0.000231	-0.000578	10.594849	-246.788414	6373.136407	216.683789
177.54	-0.000207	-0.000600	10.594840	-265.252050	6797.957596	216.487856
178.05	-0.000246	-0.000636	10.593715	-179.582267	4799.908550	191.724539
178.56	-0.000223	-0.000668	10.594653	-247.093662	6375.641985	212.371060
179.07	-0.000237	-0.000708	10.594878	-102.759535	3058.313878	217.325753
179.58	-0.000221	-0.000740	10.594890	-232.959971	6055.741448	217.571930
180.09	-0.000226	-0.000768	10.594900	-162.811824	4441.195361	217.801120
180.61	-0.000213	-0.000777	10.594896	-235.837061	6122.122532	217.716414
181.12	-0.000221	-0.000773	10.594853	-237.617146	6162.114657	216.776992
181.63	-0.000212	-0.000765	10.594878	-251.305595	6477.775163	217.308390
182.14	-0.000209	-0.000756	10.594199	-272.922223	6959.719865	202.367692
182.65	-0.000193	-0.000742	10.592393	-265.405180	6745.030943	162.638337
183.16	-0.000200	-0.000713	10.591888	-286.932209	7228.929922	151.529298
183.67	-0.000181	-0.000668	10.590191	-279.841331	7026.579777	114.211983
184.18	-0.000189	-0.000612	10.590109	-296.134315	7399.744007	112.404628
184.69	-0.000176	-0.000561	10.595334	-288.551832	7345.699639	227.351907
185.20	-0.000193	-0.000519	10.599057	-295.708515	7596.295322	309.245880
185.71	-0.000172	-0.000499	10.607764	-285.539165	7563.029579	500.817890
186.22	-0.000199	-0.000504	10.613042	-275.099154	7444.431216	616.934024
186.73	-0.000175	-0.000512	10.612896	-262.113338	7142.129924	613.717216
187.24	-0.000195	-0.000538	10.612321	-193.766362	5555.530186	601.053435
187.75	-0.000186	-0.000559	10.613023	-228.556640	6372.588115	616.504435
188.26	-0.000206	-0.000581	10.614894	86.211236	-830.099324	657.676288
188.77	-0.000185	-0.000583	10.614899	-213.513937	6069.567754	657.767993
189.28	-0.000209	-0.000592	10.614900	-12.919540	1451.989767	657.802731
189.79	-0.000192	-0.000597	10.614898	-224.882473	6331.266140	657.766625
190.30	-0.000202	-0.000601	10.614904	-177.140261	5232.395251	657.898742
190.81	-0.000188	-0.000603	10.614912	-248.244685	6869.368009	658.064010
191.32	-0.000196	-0.000596	10.614907	-253.678714	6994.353689	657.964981
191.83	-0.000187	-0.000573	10.614911	-270.695825	7386.151948	658.031932
192.34	-0.000191	-0.000554	10.614913	-284.666913	7707.827546	658.094815
192.85	-0.000178	-0.000533	10.614910	-283.191270	7673.778421	658.018189
193.36	-0.000186	-0.000533	10.614897	-291.833659	7872.422814	657.731612
193.87	-0.000177	-0.000550	10.614911	-281.721025	7639.966357	658.049173
194.38	-0.000182	-0.000584	10.614912	-282.141642	7649.667329	658.066828
194.89	-0.000173	-0.000616	10.609346	-266.916773	7170.821708	535.609890
195.40	-0.000181	-0.000640	10.605176	-263.159443	6988.150230	443.864225
195.91	-0.000163	-0.000640	10.607228	-248.413278	6696.022785	489.007045
196.42	-0.000183	-0.000631	10.607557	-232.074487	6327.503738	496.251323
196.93	-0.000161	-0.000622	10.606711	-226.225964	6173.366892	477.644596
197.44	-0.000181	-0.000613	10.607332	-179.453162	5110.991247	491.302853
197.95	-0.000156	-0.000596	10.608540	-198.155555	5569.380531	517.884947
198.46	-0.000179	-0.000558	10.609928	-117.618455	3747.446664	548.412420
198.97	-0.000156	-0.000515	10.609928	-230.351400	6342.514983	548.407147
199.48	-0.000182	-0.000479	10.601992	-168.588391	4737.738192	373.829684
199.99	-0.000158	-0.000439	10.602184	-258.491107	6811.690616	378.048474
200.50	-0.000180	-0.000423	10.594639	-254.228694	6539.570870	212.068570
201.01	-0.000163	-0.000418	10.612493	-270.531785	7326.627508	604.853355
201.52	-0.000179	-0.000427	10.612460	-274.241026	7411.236458	604.112629
202.03	-0.000162	-0.000429	10.614323	-278.973664	7563.162996	645.114183
202.54	-0.000172	-0.000435	10.613737	-281.460037	7606.880933	632.219745
203.05	-0.000167	-0.000408	10.612220	-287.348062	7707.430508	598.841889
203.56	-0.000174	-0.000380	10.610824	-291.928427	7780.680647	568.137312
204.07	-0.000156	-0.000353	10.610122	-292.082883	7768.043749	552.691270
204.58	-0.000176	-0.000337	10.610088	-297.106502	7882.887181	551.929535
205.09	-0.000164	-0.000341	10.613267	-289.774956	7787.451246	621.882966
205.60	-0.000178	-0.000370	10.612505	-279.706070	7538.079379	605.104188
206.12	-0.000155	-0.000404	10.611082	-278.550661	7478.658858	573.793779
206.63	-0.000180	-0.000427	10.611535	-253.212777	6905.836424	583.759212
207.14	-0.000148	-0.000432	10.597061	-258.195090	6686.726126	265.344334
207.65	-0.000172	-0.000423	10.595116	-256.325517	6598.837659	222.560224
208.16	-0.000156	-0.000408	10.595121	-254.215850	6550.392048	222.672972
208.67	-0.000163	-0.000395	10.595138	-249.490366	6441.999460	223.041595
209.18	-0.000153	-0.000398	10.597204	-266.227770	6874.936383	268.492899
209.69	-0.000170	-0.000419	10.595271	-244.260046	6324.669523	225.970310
210.20	-0.000147	-0.000460	10.595106	-253.995533	6544.963817	222.332808
210.71	-0.000174	-0.000518	10.595091	-240.241454	6228.013890	222.012558
211.22	-0.000152	-0.000574	10.595090	-242.746299	6285.649377	221.988515
211.73	-0.000170	-0.000632	10.595094	-220.759597	5779.613167	222.074524
212.24	-0.000152	-0.000676	10.595087	-232.549297	6050.847934	221.921793
212.75	-0.000166	-0.000722	10.595087	-213.039757	5601.740773	221.917771
213.26	-0.000155	-0.000743	10.595081	-217.250321	5698.521260	221.779202
213.77	-0.000160	-0.000751	10.595089	-206.870547	5459.762106	221.950620
214.28	-0.000144	-0.000731	10.595111	-213.637908	5616.060350	222.442745
214.79	-0.000156	-0.000689	10.595120	-213.275619	5607.924179	222.636964
215.30	-0.000137	-0.000635	10.595851	-227.461797	5951.356271	238.730408
215.81	-0.000158	-0.000567	10.595110	-235.068410	6109.370158	222.430340
216.32	-0.000140	-0.000505	10.595137	-245.412391	6348.103946	223.020697
216.83	-0.000154	-0.000462	10.595162	-246.339913	6370.021941	223.561323
217.34	-0.000143	-0.000437	10.596979	-254.629677	6602.752177	263.532528
217.85	-0.000160	-0.000437	10.597064	-245.256561	6388.943994	265.400029
218.36	-0.000134	-0.000438	10.597169	-249.509092	6489.262600	267.714959
218.87	-0.000157	-0.000451	10.596968	-239.677342	6258.301409	263.291062
219.38	-0.000135	-0.000460	10.595807	-246.748916	6394.321785	237.759951
219.89	-0.000155	-0.000473	10.596636	-232.669440	6089.331382	255.993186
220.40	-0.000134	-0.000483	10.596445	-244.834738	6364.964092	251.788089
220.91	-0.000153	-0.000484	10.595121	-231.816803	6034.752530	222.652836
221.42	-0.000133	-0.000477	10.595117	-244.349990	6323.184038	222.578261
221.93	-0.000147	-0.000484	10.595110	-237.975381	6176.274590	222.417896
222.44	-0.000130	-0.000485	10.595099	-247.826611	6402.788717	222.171959
222.95	-0.000142	-0.000509	10.595090	-232.332004	6045.907755	221.980780
223.46	-0.000126	-0.000532	10.595095	-240.577752	6235.835653	222.089146
223.97	-0.000142	-0.000556	10.595107	-226.603399	5914.426663	222.352264
224.48	-0.000121	-0.000594	10.597485	-225.110354	5934.896829	274.663994
224.99	-0.000140	-0.000619	10.598065	-211.289811	5630.134423	287.428927
225.50	-0.000130	-0.000643	10.597726	-211.453326	5626.070049	279.961354
226.01	-0.000143	-0.000664	10.595117	-200.791342	5320.472521	222.572226
226.52	-0.000130	-0.000667	10.595100	-203.184014	5375.154877	222.194339
227.03	-0.000148	-0.000651	10.597515	-196.593745	5279.141998	275.320047
227.54	-0.000128	-0.000612	10.597726	-211.429994	5625.540393	279.968440
228.05	-0.000143	-0.000564	10.599893	-215.507957	5769.394439	327.645307
228.56	-0.000120	-0.000501	10.599900	-232.460888	6159.814914	327.807292
229.07	-0.000138	-0.000438	10.599903	-240.853881	6353.082767	327.868357
229.58	-0.000119	-0.000385	10.596224	-256.544854	6629.428283	246.924450
230.09	-0.000135	-0.000361	10.592546	-253.369545	6471.514360	166.014805
230.60	-0.000112	-0.000343	10.601667	-266.271543	6978.870366	366.674850
231.11	-0.000133	-0.000351	10.602775	-254.748248	6739.166590	391.055275
231.62	-0.000112	-0.000363	10.614553	-261.399531	7163.902969	650.160813
232.14	-0.000128	-0.000368	10.610605	-247.782462	6759.392589	563.307659
232.65	-0.000121	-0.000364	10.622244	-260.526600	7321.195308	819.371090
233.16	-0.000131	-0.000347	10.621935	-253.118012	7143.511354	812.559441
233.67	-0.000116	-0.000326	10.625116	-269.883877	7602.831568	882.552940
234.18	-0.000133	-0.000310	10.625114	-263.152552	7447.830058	882.506470
234.69	-0.000124	-0.000300	10.625106	-274.652793	7712.380808	882.333945
235.20	-0.000137	-0.000310	10.628643	-265.295478	7578.546093	960.141573
235.71	-0.000122	-0.000331	10.627881	-267.591302	7613.834800	943.390634
236.22	-0.000133	-0.000341	10.629833	-257.555717	7427.834509	986.331105
236.73	-0.000113	-0.000358	10.627032	-258.629730	7387.949167	924.700487
237.24	-0.000123	-0.000367	10.625326	-253.870784	7239.052436	887.166768
237.75	-0.000109	-0.000374	10.625122	-255.653739	7275.392945	882.681023
238.26	-0.000124	-0.000404	10.625109	-238.470377	6879.549316	882.405829
238.77	-0.000104	-0.000439	10.625136	-242.428923	6971.282760	882.986812
239.28	-0.000123	-0.000501	10.625107	-220.579697	6467.667653	882.363524
239.79	-0.000107	-0.000546	10.630117	-219.801638	6565.294465	992.575308
240.30	-0.000126	-0.000573	10.630079	-195.638425	6008.183101	991.733519
240.81	-0.000103	-0.000575	10.630071	-214.655585	6445.775447	991.565470
241.32	-0.000126	-0.000554	10.630063	-193.475360	5958.025486	991.385731
241.83	-0.000108	-0.000511	10.630061	-223.477307	6648.604901	991.333125
242.34	-0.000122	-0.000479	10.630065	-219.754753	6563.006678	991.422501
242.85	-0.000105	-0.000460	10.630083	-229.455953	6786.752268	991.830100
243.36	-0.000114	-0.000462	10.630073	-221.882246	6612.166028	991.599152
243.87	-0.000103	-0.000475	10.630068	-230.706703	6815.187196	991.489639
244.38	-0.000115	-0.000502	10.630070	-206.540803	6258.957353	991.547728
244.89	-0.000102	-0.000516	10.630071	-224.181487	6665.057264	991.564327
245.40	-0.000122	-0.000503	10.630066	-210.234089	6343.877256	991.453989
245.91	-0.000100	-0.000471	10.633658	-231.703416	6920.939946	1070.481320
246.42	-0.000121	-0.000441	10.633406	-226.647969	6798.742420	1064.926860
246.93	-0.000103	-0.000396	10.634866	-246.618477	7292.139201	1097.056806
247.44	-0.000114	-0.000384	10.634868	-243.062852	7210.339062	1097.103664
247.95	-0.000103	-0.000385	10.661826	-245.549775	7889.319718	1690.177488
248.46	-0.000119	-0.000410	10.651349	-228.692406	7259.640782	1459.687245
248.97	-0.000103	-0.000435	10.647938	-230.673450	7226.560232	1384.630651
249.48	-0.000119	-0.000456	10.646520	-209.831643	6714.084050	1353.433262
249.99	-0.000097	-0.000454	10.647696	-227.289006	7143.067634	1379.304184
250.50	-0.000113	-0.000450	10.649893	-214.458792	6898.401928	1427.649464
251.01	-0.000085	-0.000436	10.649860	-229.006875	7232.530008	1426.920865
251.52	-0.000106	-0.000439	10.649903	-219.724207	7019.839278	1427.868179
252.03	-0.000094	-0.000455	10.647239	-228.778652	7166.821884	1369.252982
252.54	-0.000104	-0.000470	10.666901	-203.064710	7028.367337	1801.821856
253.05	-0.000098	-0.000476	10.664376	-221.090894	7385.093091	1746.275162
253.56	-0.000110	-0.000454	10.652167	-208.891649	6822.680086	1477.664515
254.07	-0.000098	-0.000406	10.649849	-237.464615	7426.970687	1426.678946
254.58	-0.000112	-0.000356	10.663190	-236.284960	7707.492737	1720.173897
255.09	-0.000095	-0.000313	10.663171	-259.658414	8245.109558	1719.761709
255.60	-0.000109	-0.000304	10.663036	-250.695526	8035.671242	1716.789629
256.11	-0.000087	-0.000310	10.663066	-257.276705	8187.866986	1717.456657
256.62	-0.000107	-0.000330	10.663539	-240.558379	7813.913294	1727.850837
257.13	-0.000083	-0.000348	10.662897	-244.093241	7880.483095	1713.731590
257.65	-0.000103	-0.000366	10.662760	-226.194999	7465.315321	1710.720730
258.16	-0.000086	-0.000389	10.662775	-232.736475	7616.252606	1711.059121
258.67	-0.000100	-0.000408	10.663132	-208.204618	7059.768876	1718.910918
259.18	-0.000080	-0.000418	10.664846	-223.292197	7446.600509	1756.609935
259.69	-0.000098	-0.000418	10.664862	-214.063354	7234.520217	1756.957651
260.20	-0.000076	-0.000390	10.664211	-233.082022	7657.325741	1742.651276
260.71	-0.000096	-0.000337	10.664047	-238.692110	7782.671710	1739.029914
261.22	-0.000082	-0.000289	10.662916	-263.659144	8331.329384	1714.156936
261.73	-0.000097	-0.000251	10.662569	-263.147299	8311.531594	1706.511114
262.24	-0.000081	-0.000230	10.663070	-276.840934	8638.311606	1717.535588
262.75	-0.000097	-0.000238	10.663053	-262.397024	8305.424097	1717.160109
263.26	-0.000081	-0.000253	10.663167	-267.970386	8436.359453	1719.676942
263.77	-0.000100	-0.000267	10.664599	-252.584747	8115.219801	1751.186820
264.28	-0.000084	-0.000258	10.664069	-264.915433	8386.837531	1739.520135
264.79	-0.000101	-0.000252	10.664210	-251.972345	8092.135443	1742.613992
265.30	-0.000086	-0.000234	10.664121	-270.806021	8523.623221	1740.651814
265.81	-0.000101	-0.000218	10.664127	-263.714803	8360.524433	1740.784060
266.32	-0.000090	-0.000203	10.663779	-277.592941	8671.987894	1733.146584
266.83	-0.000099	-0.000196	10.663382	-276.655535	8641.235279	1724.395606
267.34	-0.000087	-0.000184	10.662643	-284.900239	8813.979598	1708.135375
267.85	-0.000102	-0.000192	10.662770	-274.981158	8588.596331	1710.949970
268.36	-0.000082	-0.000203	10.662722	-280.243631	8708.610795	1709.875985
268.87	-0.000097	-0.000224	10.662636	-268.961940	8446.927006	1707.984277
269.38	-0.000083	-0.000236	10.662834	-272.509968	8533.186933	1712.358451
269.89	-0.000087	-0.000251	10.662709	-259.316153	8226.579591	1709.601451
270.40	-0.000076	-0.000256	10.663450	-264.576206	8364.745292	1725.895166
270.91	-0.000081	-0.000272	10.664899	-245.763812	7965.113054	1757.777191
271.42	-0.000064	-0.000288	10.664900	-248.260304	8022.603463	1757.798200
271.93	-0.000089	-0.000310	10.664897	-228.138478	7559.332759	1757.728425
272.44	-0.000076	-0.000328	10.664893	-236.724012	7756.892756	1757.655864
272.95	-0.000093	-0.000343	10.664900	-210.851988	7161.483551	1757.804620
273.46	-0.000080	-0.000359	10.664911	-225.714329	7503.862253	1758.045656
273.97	-0.000097	-0.000371	10.664909	-203.715054	6997.386986	1757.988925
274.48	-0.000081	-0.000368	10.664909	-226.003770	7510.476483	1757.999294
274.99	-0.000097	-0.000363	10.664907	-202.294355	6964.654366	1757.961628
275.50	-0.000079	-0.000347	10.664901	-232.567637	7661.377108	1757.811058
276.01	-0.000097	-0.000328	10.664907	-221.240531	7400.789315	1757.962058
276.52	-0.000076	-0.000292	10.664909	-246.113112	7973.391586	1758.003992
277.03	-0.000092	-0.000260	10.664910	-243.352584	7909.853558	1758.012000
277.54	-0.000072	-0.000234	10.664908	-259.905899	8290.873780	1757.982021
278.05	-0.000090	-0.000216	10.664909	-257.834599	8243.220467	1758.008065
278.56	-0.000072	-0.000206	10.664909	-270.039475	8524.167533	1758.003295
279.07	-0.000091	-0.000189	10.664903	-267.367872	8462.520754	1757.862700
279.58	-0.000073	-0.000160	10.664908	-288.447764	8947.891975	1757.976521
280.09	-0.000086	-0.000142	10.664911	-284.511835	8857.357317	1758.042409
280.60	-0.000069	-0.000120	10.664908	-301.119514	9239.593808	1757.978874
281.11	-0.000088	-0.000118	10.664903	-295.196832	9103.131288	1757.860197
281.62	-0.000070	-0.000136	10.664905	-293.484028	9063.749258	1757.904213
282.13	-0.000077	-0.000153	10.664905	-282.118214	8802.112568	1757.904660
282.64	-0.000063	-0.000171	10.664904	-283.425181	8832.188469	1757.895088
283.15	-0.000083	-0.000186	10.663354	-269.337926	8472.141567	1723.780473
283.67	-0.000066	-0.000208	10.663734	-271.389441	8528.129770	1732.139576
284.18	-0.000088	-0.000249	10.664466	-239.275066	7805.763392	1748.256320
284.69	-0.000068	-0.000293	10.663366	-238.634082	7765.628768	1724.046777
285.20	-0.000090	-0.000330	10.663953	-188.756882	6631.004674	1736.955025
285.71	-0.000069	-0.000346	10.663866	-211.688108	7156.868534	1735.042325
286.22	-0.000085	-0.000351	10.663126	-193.111563	6712.196065	1718.781334
286.73	-0.000071	-0.000334	10.663314	-214.322323	7204.775734	1722.897655
287.24	-0.000090	-0.000320	10.663558	-212.010361	7157.193395	1728.276010
287.75	-0.000078	-0.000290	10.662451	-237.013439	7707.228161	1703.925146
288.26	-0.000091	-0.000271	10.662425	-231.335153	7575.901674	1703.339188
288.77	-0.000075	-0.000249	10.663524	-252.542096	8089.441287	1727.533107
289.28	-0.000088	-0.000249	10.663387	-237.884135	7748.851087	1724.510227
289.79	-0.000075	-0.000238	10.663641	-254.813178	8144.419673	1730.107561
290.30	-0.000085	-0.000232	10.663464	-235.855256	7703.921017	1726.202481
290.81	-0.000073	-0.000225	10.663609	-257.558697	8206.865469	1729.387263
291.32	-0.000087	-0.000234	10.663401	-230.002937	7567.757737	1724.824196
291.83	-0.000069	-0.000242	10.663796	-247.463114	7978.782320	1733.502131
292.34	-0.000085	-0.000277	10.663611	-214.467149	7214.962130	1729.434335
292.85	-0.000065	-0.000311	10.663247	-218.285160	7294.457206	1721.427049
293.36	-0.000081	-0.000337	10.662993	-174.790966	6287.383979	1715.845025
293.87	-0.000068	-0.000354	10.664022	-198.953863	6867.344494	1738.489663
294.38	-0.000081	-0.000361	10.664110	-155.053105	5858.779225	1740.411946
294.89	-0.000063	-0.000352	10.664807	-196.108281	6819.943774	1755.758790
295.40	-0.000088	-0.000341	10.662720	-178.142883	6358.255851	1709.846746
295.91	-0.000067	-0.000308	10.662953	-215.901022	7232.810706	1714.974393
296.42	-0.000086	-0.000280	10.664866	-204.849089	7022.508952	1757.051104
296.93	-0.000073	-0.000237	10.664877	-243.820490	7919.882037	1757.303677
297.44	-0.000082	-0.000202	10.664876	-242.597721	7891.711515	1757.281918
297.95	-0.000068	-0.000170	10.664890	-273.728390	8608.640950	1757.579610
298.46	-0.000081	-0.000152	10.664890	-269.292986	8506.536675	1757.576964
298.97	-0.000071	-0.000146	10.664891	-283.739709	8839.110158	1757.591132
299.48	-0.000085	-0.000144	10.664904	-274.633917	8629.816368	1757.894889
299.99	-0.000072	-0.000137	10.664904	-286.767879	8909.125899	1757.885218
300.50	-0.000085	-0.000134	10.664906	-281.543793	8788.910061	1757.924184
301.01	-0.000070	-0.000117	10.664903	-293.498902	9064.043942	1757.858691
301.52	-0.000086	-0.000099	10.664905	-295.561019	9111.557986	1757.901445
302.03	-0.000076	-0.000076	10.664909	-310.872334	9464.119711	1757.997302
302.54	-0.000090	-0.000064	10.664899	-309.187807	9425.106737	1757.772435
303.05	-0.000071	-0.000055	10.664895	-317.513503	9616.682161	1757.696839
303.56	-0.000090	-0.000069	10.664892	-307.028514	9375.249467	1757.628331
304.07	-0.000061	-0.000078	10.664894	-304.765793	9323.203215	1757.667248
304.58	-0.000083	-0.000099	10.664904	-288.993049	8960.360419	1757.896546
305.09	-0.000059	-0.000114	10.664912	-284.665204	8860.903901	1758.057746
305.60	-0.000077	-0.000131	10.664915	-259.726750	8286.911961	1758.136675
306.11	-0.000060	-0.000155	10.664914	-271.499288	8557.891898	1758.117722
306.62	-0.000079	-0.000179	10.664916	-248.185550	8021.264319	1758.162266
307.13	-0.000064	-0.000211	10.664916	-251.582323	8099.457229	1758.162612
307.64	-0.000081	-0.000249	10.664912	-217.792856	7321.524587	1758.057041
308.15	-0.000068	-0.000289	10.664911	-223.435974	7451.421891	1758.051949
308.66	-0.000080	-0.000346	10.664914	-172.878576	6287.674577	1758.115573
309.18	-0.000064	-0.000385	10.664915	-184.044206	6544.716083	1758.127521
309.69	-0.000079	-0.000415	10.664913	-135.199359	5420.272229	1758.077735
310.20	-0.000067	-0.000435	10.664912	-164.385055	6092.104154	1758.065501
310.71	-0.000075	-0.000441	10.664915	-111.972557	4885.658682	1758.134470
311.22	-0.000063	-0.000433	10.664917	-155.515264	5888.038143	1758.173810
311.73	-0.000082	-0.000421	10.664916	-111.627751	4877.742866	1758.154997
312.24	-0.000062	-0.000394	10.664917	-167.868260	6172.391950	1758.166245
312.75	-0.000078	-0.000367	10.664915	-139.839234	5527.145578	1758.139749
313.26	-0.000063	-0.000344	10.664915	-192.622433	6742.194747	1758.137833
313.77	-0.000071	-0.000335	10.664914	-160.277891	5997.604833	1758.109581
314.28	-0.000056	-0.000338	10.664900	-186.176414	6593.458956	1757.803341
314.79	-0.000075	-0.000348	10.664901	-143.405016	5608.889241	1757.815971
315.30	-0.000056	-0.000352	10.664912	-184.333379	6551.302479	1758.060482
315.81	-0.000076	-0.000354	10.664911	-143.337283	5607.567379	1758.042376
316.32	-0.000053	-0.000351	10.664908	-162.412813	6046.616857	1757.982551
316.83	-0.000076	-0.000348	10.664901	-124.295310	5168.994307	1757.819760
317.34	-0.000062	-0.000327	10.662682	-185.908911	6536.133703	1708.994494
317.85	-0.000080	-0.000310	10.663368	-156.128573	5866.430731	1724.095011
318.36	-0.000066	-0.000277	10.662925	-217.301113	7264.390893	1714.354902
318.87	-0.000081	-0.000240	10.662774	-203.038227	6932.578449	1711.029887
319.38	-0.000063	-0.000199	10.663470	-253.311380	8105.900569	1726.341336
319.89	-0.000076	-0.000169	10.663873	-244.596581	7914.592698	1735.216294
320.40	-0.000055	-0.000148	10.664696	-271.994468	8564.243023	1753.302666
320.91	-0.000073	-0.000155	10.664883	-254.292851	8161.090198	1757.435310
321.42	-0.000054	-0.000162	10.664879	-269.557569	8512.366091	1757.327803
321.93	-0.000070	-0.000171	10.664873	-254.311548	8161.287553	1757.212993
322.44	-0.000060	-0.000176	10.663052	-264.181638	8346.494027	1717.149350
322.95	-0.000071	-0.000159	10.663480	-257.033030	8191.792057	1726.551558
323.46	-0.000062	-0.000148	10.664864	-274.467988	8625.070976	1757.011795
323.97	-0.000078	-0.000139	10.664856	-266.874038	8450.075702	1756.835181
324.48	-0.000059	-0.000133	10.662529	-278.680409	8668.188923	1705.643490
324.99	-0.000071	-0.000125	10.662558	-272.715983	8531.557427	1706.280267
325.50	-0.000059	-0.000135	10.662870	-279.650288	8698.365213	1713.131640
326.01	-0.000067	-0.000154	10.663235	-252.114285	8072.925847	1721.173079
326.52	-0.000053	-0.000190	10.664809	-252.685170	8122.367110	1755.799521
327.03	-0.000070	-0.000235	10.664252	-198.328661	6858.249481	1743.542427
327.54	-0.000053	-0.000277	10.664003	-206.779144	7047.039035	1738.069233
328.05	-0.000073	-0.000319	10.663243	-155.011170	5837.826001	1721.345394
328.56	-0.000056	-0.000348	10.664850	-172.752257	6283.283280	1756.700469
329.07	-0.000070	-0.000378	10.664893	-106.889159	4768.124904	1757.642565
329.58	-0.000052	-0.000395	10.664903	-163.525041	6072.102736	1757.870744
330.09	-0.000066	-0.000408	10.664906	-101.861447	4652.696981	1757.936633
330.60	-0.000048	-0.000412	10.664900	-152.497691	5818.191815	1757.808627
331.11	-0.000066	-0.000411	10.664898	-118.831830	5043.168112	1757.763708
331.62	-0.000051	-0.000399	10.664905	-149.643216	5752.579950	1757.901341
332.13	-0.000063	-0.000393	10.664912	-115.168025	4959.147432	1758.067875
332.64	-0.000047	-0.000377	10.664913	-158.638447	5959.837769	1758.083221
333.15	-0.000069	-0.000372	10.664912	-134.044637	5393.672647	1758.060309
333.66	-0.000051	-0.000358	10.664913	-174.230326	6318.754724	1758.080585
334.17	-0.000068	-0.000337	10.664911	-156.157464	5902.685218	1758.043943
334.69	-0.000057	-0.000317	10.664907	-194.277468	6780.106425	1757.959774
335.20	-0.000074	-0.000295	10.664899	-175.267001	6342.303989	1757.780450
335.71	-0.000056	-0.000274	10.664902	-215.281124	7263.478409	1757.840537
336.22	-0.000077	-0.000258	10.664907	-207.054601	7074.221412	1757.950003
336.73	-0.000059	-0.000238	10.664909	-236.242769	7746.177704	1758.002137
337.24	-0.000074	-0.000211	10.664912	-224.319531	7471.770035	1758.060499
