Length [m]	OTDR [V]	Brillouin intensity [V]	Fitted Frequency [GHz]	Temperature [”]	Compensated Strain [レュ]	Uncompensated Strain [レュ]
0.51	0.007073	0.040891	10.503941	-152.608860	2110.824719	-1783.304654
1.02	0.007136	0.044566	10.476827	-130.473573	975.954937	-2379.803490
1.53	0.007096	0.047590	10.458257	-94.482207	-280.840544	-2788.348214
2.04	0.007083	0.050104	10.445229	-53.632189	-1521.649952	-3074.954683
2.55	0.006956	0.052146	10.437624	-26.527976	-2320.993098	-3242.282438
3.06	0.006920	0.053921	10.434901	-13.474913	-2684.268761	-3302.186370
3.57	0.006918	0.055403	10.433468	-23.138940	-2494.846214	-3333.703439
4.08	0.006972	0.056697	10.432171	-27.649972	-2420.915295	-3362.236171
4.59	0.007003	0.057720	10.432336	-18.223546	-2634.093737	-3358.597347
5.10	0.007051	0.058536	10.433072	5.204482	-3156.437682	-3342.417930
5.61	0.007018	0.059094	10.433134	24.877692	-3607.884810	-3341.060102
6.12	0.006990	0.059491	10.433195	36.078540	-3864.314079	-3339.714683
6.63	0.006912	0.059743	10.432477	25.812293	-3644.545435	-3355.508357
7.14	0.006914	0.059972	10.432228	10.775539	-3304.146873	-3360.986038
7.65	0.006918	0.060147	10.432301	-2.354361	-3000.205789	-3359.368894
8.16	0.006994	0.060313	10.432366	2.452051	-3109.364046	-3357.953580
8.67	0.007036	0.060395	10.432873	17.505367	-3444.178358	-3346.785387
9.18	0.007089	0.060439	10.433267	39.365305	-3938.306838	-3338.124099
9.69	0.007036	0.060369	10.431888	50.263768	-4220.989722	-3368.462107
10.20	0.006987	0.060299	10.431027	53.198937	-4308.419289	-3387.409505
10.71	0.006897	0.060223	10.431396	45.164915	-4114.958903	-3379.282275
11.22	0.006898	0.060237	10.431827	41.214124	-4014.083825	-3369.810743
11.73	0.006902	0.060261	10.431703	41.549572	-4024.663605	-3372.536882
12.24	0.006982	0.060337	10.431185	50.299392	-4238.028693	-3383.933418
12.75	0.007008	0.060349	10.430871	53.266011	-4313.558097	-3390.838593
13.26	0.007029	0.060329	10.431162	54.471062	-4334.576076	-3384.426547
13.77	0.006957	0.060224	10.431466	47.801233	-4174.043309	-3377.753425
14.28	0.006915	0.060146	10.431799	42.838962	-4052.124008	-3370.418346
14.79	0.006856	0.060094	10.431841	34.291274	-3854.390095	-3369.493963
15.30	0.006891	0.060149	10.431140	29.430887	-3758.683351	-3384.925940
15.81	0.006907	0.060235	10.431123	23.250930	-3616.814365	-3385.299409
16.32	0.006952	0.060366	10.431712	21.728406	-3568.186623	-3372.345611
16.83	0.006891	0.060395	10.431784	19.480407	-3514.765444	-3370.749713
17.34	0.006801	0.060386	10.431524	24.580094	-3638.164571	-3376.478944
17.85	0.006618	0.060297	10.432044	27.935938	-3703.413759	-3365.030941
18.36	0.006491	0.060252	10.432249	35.296795	-3868.125556	-3360.516474
18.87	0.006375	0.060206	10.431204	34.410441	-3871.836342	-3383.519281
19.38	0.006352	0.060224	10.431751	33.464518	-3837.444292	-3371.483653
19.89	0.006327	0.060208	10.433014	30.335292	-3736.265539	-3343.682040
20.40	0.006329	0.060193	10.433332	31.270674	-3750.465639	-3336.687944
20.91	0.006254	0.060112	10.433489	38.897932	-3922.429017	-3333.241017
21.42	0.006202	0.060032	10.434518	47.160022	-4088.880978	-3310.596726
21.93	0.006107	0.059933	10.434734	52.582592	-4208.726133	-3305.845737
22.44	0.006092	0.059900	10.434785	53.323550	-4224.614280	-3304.731144
22.95	0.006083	0.059856	10.435151	40.402376	-3918.727032	-3296.674245
23.46	0.006141	0.059861	10.435048	39.414045	-3898.365546	-3298.953635
23.97	0.006164	0.059808	10.435683	30.519893	-3678.979877	-3284.983380
24.48	0.006192	0.059759	10.436008	30.749301	-3676.760512	-3277.828843
24.99	0.006150	0.059650	10.435835	32.924617	-3730.818684	-3281.628399
25.50	0.006133	0.059586	10.435768	38.677607	-3864.785938	-3283.093010
26.02	0.006078	0.059536	10.435506	36.554109	-3821.962098	-3288.872119
26.53	0.006104	0.059596	10.435405	36.614547	-3825.673648	-3291.085442
27.04	0.006110	0.059681	10.435450	28.476235	-3637.292764	-3290.093646
27.55	0.006176	0.059818	10.435683	22.747718	-3500.051937	-3284.968966
28.06	0.006180	0.059904	10.435099	25.011656	-3565.642300	-3297.823101
28.57	0.006191	0.059966	10.434960	31.095484	-3708.894528	-3300.879973
29.08	0.006140	0.059950	10.435013	37.713609	-3860.024621	-3299.719177
29.59	0.006124	0.059950	10.434744	45.036083	-4034.780756	-3305.628895
30.10	0.006079	0.059908	10.434834	41.227375	-3945.038638	-3303.657206
30.61	0.006111	0.059913	10.435452	39.494465	-3890.889057	-3290.055882
31.12	0.006116	0.059887	10.435625	35.601663	-3797.293625	-3286.255070
31.63	0.006163	0.059901	10.436068	31.450513	-3691.506338	-3276.497356
32.14	0.006153	0.059871	10.436011	34.899735	-3772.234198	-3277.764091
32.65	0.006157	0.059852	10.436530	39.519684	-3866.599113	-3266.331806
33.16	0.006108	0.059797	10.437393	42.852702	-3923.430506	-3247.355262
33.67	0.006112	0.059764	10.438134	43.235611	-3915.145267	-3231.043795
34.18	0.006085	0.059736	10.438476	40.003246	-3832.852864	-3223.522751
34.69	0.006121	0.059733	10.438613	32.574651	-3658.685092	-3220.504548
35.20	0.006140	0.059742	10.439093	29.346224	-3573.314355	-3209.960593
35.71	0.006185	0.059739	10.440491	31.419352	-3588.783814	-3179.194069
36.22	0.006166	0.059736	10.440933	32.058798	-3593.325321	-3169.484927
36.73	0.006164	0.059698	10.440471	38.609176	-3754.754836	-3179.636426
37.24	0.006111	0.059659	10.440342	40.353522	-3797.886272	-3182.476387
37.75	0.006118	0.059629	10.440698	40.245254	-3787.185475	-3174.646253
38.26	0.006099	0.059605	10.440288	37.184420	-3726.184954	-3183.669086
38.77	0.006148	0.059602	10.439568	35.471859	-3703.365156	-3199.506538
39.28	0.006151	0.059576	10.439398	32.763399	-3644.937320	-3203.245839
39.79	0.006181	0.059545	10.439708	34.308135	-3673.348400	-3196.427119
40.30	0.006149	0.059483	10.440101	35.427466	-3690.047120	-3187.777208
40.81	0.006146	0.059454	10.439981	39.500124	-3786.572000	-3190.423044
41.32	0.006105	0.059410	10.440398	39.085360	-3767.411315	-3181.253189
41.83	0.006123	0.059417	10.440720	38.887464	-3755.410143	-3174.150729
42.34	0.006107	0.059418	10.441421	34.785356	-3644.827809	-3158.742102
42.85	0.006151	0.059453	10.442607	32.773247	-3571.162463	-3132.655391
43.36	0.006142	0.059429	10.442395	29.882396	-3509.506307	-3137.320220
43.87	0.006163	0.059409	10.441129	32.525914	-3599.534982	-3165.151151
44.38	0.006130	0.059325	10.441298	34.569257	-3642.687133	-3161.445320
44.89	0.006130	0.059280	10.442191	39.208386	-3728.870776	-3141.787710
45.40	0.006105	0.059232	10.442317	38.853696	-3717.816516	-3139.031470
45.91	0.006131	0.059256	10.443129	38.756995	-3696.856573	-3121.161090
46.42	0.006123	0.059273	10.443516	34.518222	-3590.358167	-3112.649101
46.93	0.006161	0.059327	10.442722	33.468337	-3584.505816	-3130.120496
47.44	0.006140	0.059319	10.442772	32.322434	-3556.960201	-3129.006976
47.95	0.006149	0.059301	10.443216	36.070620	-3633.020894	-3119.256851
48.46	0.006106	0.059234	10.443062	37.920467	-3679.136492	-3122.626763
48.97	0.006109	0.059181	10.444476	40.803974	-3712.908662	-3091.524537
49.48	0.006084	0.059106	10.449778	38.416699	-3535.679253	-2974.885629
49.99	0.006112	0.059040	10.471382	37.092001	-3006.919050	-2499.587067
50.50	0.006106	0.058882	10.508437	33.682305	-2073.843928	-1684.393999
51.01	0.006138	0.058640	10.539779	35.402518	-1390.591525	-994.862641
51.53	0.006119	0.058200	10.557039	37.526798	-1041.414028	-615.134311
52.04	0.006125	0.057606	10.561622	44.010680	-1084.975008	-514.310572
52.55	0.006097	0.056846	10.565044	46.371349	-1060.411859	-439.042748
53.06	0.006111	0.056030	10.566594	47.750043	-1056.389611	-404.931770
53.57	0.006097	0.055160	10.567100	43.096177	-937.588557	-393.799073
54.08	0.006135	0.054335	10.567201	38.891466	-838.462736	-391.571892
54.59	0.006120	0.053516	10.567107	33.041151	-705.962981	-393.644239
55.10	0.006142	0.052787	10.567590	32.371551	-679.409686	-383.018377
55.61	0.006110	0.052112	10.567499	30.687097	-642.728270	-385.015986
56.12	0.006121	0.051584	10.567918	32.649974	-678.245353	-375.793934
56.63	0.006087	0.051142	10.568958	30.367819	-601.734279	-352.922494
57.14	0.006100	0.050849	10.568852	28.802604	-568.154399	-355.260359
57.65	0.006084	0.050640	10.568950	23.811884	-451.016181	-353.110678
58.16	0.006111	0.050531	10.568739	21.676073	-406.695291	-357.732110
58.67	0.006098	0.050452	10.568748	19.494802	-356.296503	-357.554051
59.18	0.006121	0.050442	10.569767	21.881643	-387.729089	-335.126133
59.69	0.006092	0.050402	10.569902	22.599624	-401.136138	-332.149347
60.20	0.006105	0.050405	10.569071	25.851969	-495.171700	-350.433514
60.71	0.006077	0.050362	10.569044	23.993529	-453.016771	-351.030396
61.22	0.006098	0.050338	10.569315	23.471782	-434.751896	-345.064247
61.73	0.006085	0.050287	10.568512	19.238012	-355.806907	-362.725754
62.24	0.006110	0.050255	10.567639	18.776520	-365.324854	-381.938686
62.75	0.006091	0.050179	10.569387	17.595895	-297.830726	-343.480510
63.26	0.006117	0.050131	10.569860	20.229485	-347.548276	-333.076474
63.77	0.006089	0.050063	10.569483	20.647336	-365.856969	-341.365815
64.28	0.006130	0.050048	10.569636	23.233171	-421.868740	-338.014495
64.79	0.006209	0.050032	10.569263	21.198428	-383.616204	-346.205258
65.30	0.006510	0.050074	10.569370	21.216984	-381.575352	-343.851006
65.81	0.007094	0.050103	10.569266	18.662478	-325.177128	-346.145750
66.32	0.008142	0.050164	10.569398	19.676731	-345.475564	-343.236983
66.83	0.009504	0.050178	10.569905	19.550573	-330.874669	-332.079382
67.34	0.010953	0.050202	10.569780	22.631261	-404.686517	-334.841380
67.85	0.011992	0.050175	10.569667	22.190874	-397.142745	-337.315601
68.36	0.012422	0.050180	10.569931	23.856668	-429.401632	-331.509066
68.87	0.012171	0.050163	10.569620	21.552675	-383.536541	-338.350512
69.38	0.011454	0.050200	10.569589	20.699537	-364.621042	-339.040609
69.89	0.010470	0.050220	10.570329	18.251911	-291.220364	-322.769692
70.40	0.009500	0.050270	10.570767	19.692238	-314.265093	-313.124657
70.91	0.008619	0.050277	10.570628	19.875324	-321.683788	-316.181070
71.42	0.007955	0.050313	10.570313	23.210801	-405.739712	-323.120155
71.93	0.007434	0.050295	10.570377	22.693806	-392.356824	-321.706621
72.44	0.007105	0.050307	10.570641	23.911698	-414.305589	-315.900479
72.95	0.006843	0.050282	10.571215	20.822206	-329.955357	-303.279186
73.46	0.006703	0.050287	10.570634	20.684787	-340.182843	-316.052765
73.97	0.006578	0.050260	10.570281	18.742864	-303.620903	-323.817998
74.48	0.006519	0.050256	10.570537	20.605536	-340.595314	-318.186459
74.99	0.006447	0.050208	10.570497	20.426490	-337.398610	-319.068700
75.50	0.006429	0.050183	10.570708	22.684941	-384.517829	-314.423615
76.01	0.006374	0.050129	10.571025	21.186926	-342.717952	-307.444761
76.52	0.006372	0.050110	10.570770	21.992142	-367.131887	-313.051966
77.03	0.006342	0.050075	10.570735	19.170178	-302.985887	-313.829050
77.55	0.006351	0.050071	10.571082	19.663207	-306.331435	-306.194166
78.06	0.006319	0.050034	10.570753	18.189538	-279.993439	-313.429899
78.57	0.006330	0.050022	10.570486	19.996831	-327.762213	-319.311190
79.08	0.006297	0.049994	10.571262	19.812536	-305.622165	-302.238541
79.59	0.006309	0.050006	10.571557	21.401833	-335.407923	-295.752637
80.10	0.006281	0.049992	10.571394	19.770985	-301.621830	-299.335006
80.61	0.006305	0.050013	10.571014	20.357095	-323.873779	-307.691114
81.12	0.006292	0.049999	10.570952	18.067764	-272.608742	-309.059565
81.63	0.006315	0.050007	10.571087	19.330708	-298.566026	-306.087924
82.14	0.006306	0.049988	10.571807	18.669305	-266.744071	-290.256262
82.65	0.006329	0.049991	10.571533	21.221498	-331.803969	-296.274712
83.16	0.006308	0.049981	10.571107	20.964731	-335.719151	-305.647654
83.67	0.006332	0.049996	10.571307	22.527337	-367.066755	-301.237710
84.18	0.006309	0.049984	10.571466	20.824366	-324.215200	-297.756205
84.69	0.006337	0.049994	10.571117	21.213217	-341.200522	-305.419966
85.20	0.006318	0.049980	10.570984	19.230982	-298.637763	-308.346190
85.71	0.006352	0.050014	10.570944	20.591275	-330.869847	-309.222456
86.22	0.006331	0.050021	10.570711	20.305847	-329.690698	-314.365251
86.73	0.006339	0.050048	10.571510	22.180818	-354.418261	-296.781320
87.24	0.006275	0.050024	10.571577	21.127607	-328.638323	-295.316711
87.75	0.006245	0.050023	10.571164	21.966840	-357.462068	-304.383459
88.26	0.006270	0.049948	10.570582	19.192522	-307.036410	-317.202224
88.77	0.007275	0.049926	10.570736	19.913911	-320.084333	-313.808039
89.28	0.011964	0.049943	10.571122	18.780298	-285.089972	-305.319263
89.79	0.011964	0.050091	10.571399	21.687911	-345.637200	-299.228545
90.30	0.011964	0.050196	10.571208	21.826173	-353.221020	-303.426755
90.81	0.011964	0.050242	10.571401	24.164104	-402.574376	-299.167551
91.32	0.011964	0.050135	10.570945	22.614620	-377.432694	-309.209225
91.83	0.011964	0.050080	10.570784	23.151129	-393.507161	-312.761774
92.34	0.011964	0.050027	10.571311	21.185434	-336.098181	-301.162907
92.85	0.011964	0.050046	10.571283	22.053402	-356.711115	-301.766351
93.36	0.011964	0.050069	10.571442	20.890244	-326.270824	-298.270487
93.87	0.011964	0.050147	10.571690	23.139907	-372.333423	-292.810446
94.38	0.011964	0.050203	10.572199	22.809644	-353.004732	-281.624817
94.89	0.011964	0.050253	10.572644	24.816877	-388.937131	-271.824963
95.40	0.011964	0.050219	10.572782	23.354098	-352.078554	-268.785902
95.91	0.011964	0.050204	10.572098	23.985926	-382.405930	-283.841291
96.42	0.011964	0.050184	10.571885	22.346482	-349.571217	-288.519943
96.93	0.011964	0.050247	10.572108	23.976159	-381.963499	-283.633744
97.44	0.011964	0.050286	10.571739	22.695941	-360.988801	-291.737609
97.95	0.011964	0.050325	10.571234	24.663853	-417.930802	-302.842345
98.46	0.011964	0.050282	10.568798	21.914814	-410.835608	-356.439173
98.97	0.011964	0.050242	10.565342	16.995045	-377.294724	-432.475439
99.48	0.011964	0.050174	10.561288	0.066839	-81.113577	-521.665906
99.99	0.007989	0.050184	10.556351	-27.838107	447.380314	-630.285567
100.50	0.004971	0.050201	10.551380	-67.903547	1255.026923	-739.647085
101.01	0.002796	0.050259	10.546747	-106.570516	2038.278481	-841.570738
101.52	0.001477	0.050272	10.543293	-137.362969	2667.461932	-917.547633
102.03	0.001404	0.050287	10.542287	-154.847579	3046.746916	-939.682788
102.54	0.001337	0.050254	10.542744	-161.365228	3207.316361	-929.633010
103.06	0.001100	0.050265	10.543563	-157.645406	3140.573732	-911.617183
103.57	0.001083	0.050283	10.544236	-146.173518	2892.015982	-896.811434
104.08	0.000913	0.050356	10.545019	-127.684120	2484.461451	-879.579053
104.59	0.000630	0.050409	10.544998	-105.800804	1980.216348	-880.054720
105.10	0.000302	0.050480	10.544161	-81.511590	1401.787335	-898.464735
105.61	0.000020	0.050504	10.543667	-59.835601	891.417643	-909.335279
106.12	-0.000280	0.050554	10.543006	-39.931606	417.995051	-923.872249
106.63	-0.000485	0.050597	10.541689	-25.765637	61.529984	-952.841699
107.14	-0.000643	0.050720	10.540808	-12.946062	-253.886934	-972.219970
107.65	-0.000643	0.050844	10.540437	-5.348796	-437.339127	-980.390858
108.16	-0.000643	0.051013	10.540587	2.170690	-606.968105	-977.083654
108.67	-0.000643	0.051136	10.540730	6.067566	-693.368035	-973.931173
109.18	-0.000643	0.051255	10.540171	10.778488	-814.707616	-986.232504
109.69	-0.000643	0.051306	10.540086	12.115444	-847.442399	-988.100755
110.20	-0.000643	0.051371	10.540588	15.575703	-915.526661	-977.064332
110.71	-0.000643	0.051416	10.540276	16.018290	-932.915723	-983.933268
111.22	-0.000643	0.051485	10.540102	18.152828	-986.057203	-987.753797
111.73	-0.000643	0.051521	10.540481	17.899986	-971.498789	-979.418503
112.24	-0.000643	0.051556	10.540135	19.979890	-1027.350179	-987.023709
112.75	-0.000930	0.051542	10.539345	19.260487	-1029.012272	-1004.406256
113.26	-0.000930	0.051541	10.539662	21.140052	-1064.975581	-997.439274
113.77	-0.000930	0.051508	10.539330	20.175847	-1050.431071	-1004.737764
114.28	-0.000930	0.051514	10.539698	21.827351	-1079.965425	-996.646064
114.79	-0.000930	0.051508	10.540037	20.449551	-1040.439871	-989.196960
115.30	-0.000930	0.051544	10.539927	21.397055	-1064.787173	-991.616131
115.81	-0.000930	0.051553	10.539570	20.178211	-1044.953332	-999.460610
116.32	-0.000930	0.051581	10.539322	20.868282	-1066.552378	-1004.911084
116.83	-0.000888	0.051553	10.539768	19.358028	-1021.510713	-995.108624
117.34	-0.000643	0.051537	10.539855	20.471097	-1045.127888	-993.195758
117.85	-0.000555	0.051464	10.539689	18.588526	-1005.604312	-996.832589
118.36	-0.000555	0.051419	10.540007	19.552287	-1020.473705	-989.853762
118.87	-0.000555	0.051340	10.540507	17.413073	-959.680344	-978.836739
119.38	-0.000555	0.051304	10.540029	18.261150	-990.226311	-989.352134
119.89	-0.000555	0.051264	10.539866	16.071028	-943.589153	-992.956666
120.40	-0.000555	0.051274	10.540032	17.304525	-968.148743	-989.298360
120.91	-0.000555	0.051266	10.539870	16.838458	-961.152055	-992.858343
121.42	-0.000555	0.051292	10.539452	20.624072	-1057.945232	-1002.063169
121.93	-0.000555	0.051295	10.539181	22.374833	-1104.495583	-1008.023584
122.44	-0.000555	0.051320	10.539474	21.104581	-1068.491002	-1001.571561
122.95	-0.000509	0.051327	10.539404	-28.679080	75.897558	-1003.111420
123.46	-0.000369	0.051382	10.539845	-150.376876	2887.513998	-993.405624
123.97	-0.000364	0.051405	10.540070	-150.294119	2890.796678	-988.457032
124.48	-0.000095	0.051412	10.539950	-150.267545	2887.415801	-991.098541
124.99	-0.000035	0.051225	10.540920	-150.957796	2925.666025	-969.768390
125.50	-0.000007	0.050772	10.542034	-152.624534	2989.739740	-945.247316
126.01	0.000000	0.049722	10.542100	-156.492536	3080.305797	-943.791696
126.52	0.000000	0.047878	10.543860	-163.287362	3277.308657	-905.074307
127.03	0.000000	0.044977	10.545486	-173.978683	3560.909138	-869.312485
127.54	0.000000	0.041093	10.547266	-188.289855	3931.405137	-830.147313
128.05	0.000000	0.036387	10.554046	-205.629572	4486.934225	-680.980674
128.56	0.000000	0.031270	10.558795	-224.482307	5030.441935	-576.504974
129.08	0.000000	0.026039	10.568918	-243.754989	5707.552119	-353.806649
129.59	0.000081	0.021078	10.575176	-262.036471	6272.721302	-216.124069
130.10	0.000075	0.016526	10.592115	-278.807967	7049.454903	156.528019
130.61	-0.000007	0.012599	10.592112	-293.277709	7382.483334	156.470723
131.12	-0.000125	0.009284	10.592697	-305.490862	7677.118388	169.341219
131.63	-0.000190	0.006621	10.591954	-315.302585	7885.838391	152.988899
132.14	-0.000346	0.004498	10.590107	-323.126285	8023.329073	112.344717
132.65	-0.000463	0.002893	10.590090	-329.042214	8159.119671	111.970713
133.16	-0.000558	0.001645	10.590087	-333.638195	8264.855809	111.911803
133.67	-0.000688	0.000748	10.590089	-336.942469	8340.975542	111.965672
134.18	-0.000673	0.000088	10.590089	-339.212469	8393.224146	111.959917
134.69	-0.000714	-0.000340	10.590094	-342.714294	8473.954194	112.073669
135.20	-0.000669	-0.000637	10.590082	-349.746905	8635.553264	111.797761
135.71	-0.000572	-0.000799	10.590080	-363.561379	8953.519070	111.760898
136.22	-0.000583	-0.000944	10.590079	-369.339549	9086.495207	111.727165
136.73	-0.000508	-0.001024	10.590081	-373.452235	9181.216977	111.774050
137.24	-0.000491	-0.001117	10.590085	-384.454788	9434.581737	111.859663
137.75	-0.000449	-0.001154	10.590092	-386.680869	9485.990138	112.016832
138.26	-0.000524	-0.001195	10.590093	-397.450059	9733.922846	112.045119
138.77	-0.000388	-0.001188	10.590069	-422.878606	10318.735824	111.526684
139.28	-0.000533	-0.001183	10.590065	-512.657118	12385.313351	111.437882
139.79	-0.000413	-0.001138	10.590073	-2812.114647	65318.212788	111.603584
140.30	-0.000518	-0.001114	10.590092	-164.469169	4370.768887	112.032169
140.81	-0.000425	-0.001041	10.590126	-245.052738	6226.548472	112.769903
141.32	-0.000500	-0.001002	10.590101	-270.998423	6823.237799	112.224775
141.83	-0.000391	-0.000931	10.590099	-275.874312	6935.429319	112.177295
142.34	-0.000378	-0.000896	10.590097	-278.288106	6990.956176	112.141197
142.85	-0.000317	-0.000848	10.590092	-281.560547	7066.155800	112.016366
143.36	-0.000224	-0.000858	10.590089	-280.856776	7049.898502	111.962253
143.87	-0.000232	-0.000860	10.590096	-280.712688	7046.746444	112.119472
144.38	-0.000145	-0.000910	10.590108	-277.293787	6968.310340	112.373036
144.89	-0.000189	-0.000933	10.593388	-275.752536	7008.473579	184.528627
145.40	-0.000151	-0.000980	10.592078	-272.545151	6904.432273	155.712681
145.91	-0.000219	-0.000981	10.590132	-272.476988	6857.975707	112.894272
146.42	-0.000237	-0.000996	10.590122	-271.401921	6833.016868	112.692849
146.93	-0.000283	-0.000973	10.590087	-293.544342	7341.921651	111.923833
147.44	-0.000375	-0.000960	10.590080	-294.204184	7356.933909	111.754931
147.95	-0.000376	-0.000929	10.590067	-295.633519	7389.530990	111.463282
148.46	-0.000527	-0.000927	10.590072	-295.744077	7392.209205	111.590357
148.97	-0.000484	-0.000889	10.590072	-297.552734	7433.829124	111.576289
149.48	-0.000609	-0.000886	10.590056	-297.711731	7437.134226	111.237691
149.99	-0.000515	-0.000835	10.590061	-300.109294	7492.430286	111.337833
150.50	-0.000571	-0.000816	10.590077	-301.012182	7513.579053	111.685639
151.01	-0.000434	-0.000790	10.590081	-300.479385	7501.412803	111.779637
151.52	-0.000432	-0.000821	10.590075	-283.440322	7109.041407	111.648016
152.03	-0.000312	-0.000832	10.590073	-273.556471	6881.476323	111.607732
152.54	-0.000266	-0.000871	10.590076	-270.481408	6810.760276	111.675333
153.05	-0.000210	-0.000855	10.590076	-271.754282	6840.061899	111.675793
153.56	-0.000134	-0.000854	10.590075	-271.826108	6841.694690	111.656124
154.07	-0.000123	-0.000809	10.590075	-275.413809	6924.282723	111.656497
154.59	-0.000063	-0.000801	10.590075	-276.010875	6938.021800	111.651564
155.10	-0.000100	-0.000773	10.590070	-278.264866	6989.801253	111.549814
155.61	-0.000094	-0.000788	10.590074	-277.040034	6961.697598	111.637170
156.12	-0.000163	-0.000793	10.590079	-276.650486	6952.834252	111.736279
156.63	-0.000229	-0.000827	10.590081	-273.948672	6890.679380	111.774415
157.14	-0.000279	-0.000825	10.590085	-268.310333	6760.985181	111.868304
157.65	-0.000368	-0.000831	10.590079	-240.506548	6120.805926	111.729384
158.16	-0.000364	-0.000790	10.590079	-244.017831	6201.636705	111.731518
158.67	-0.000458	-0.000780	10.590068	21.266062	94.639458	111.490391
159.18	-0.000402	-0.000747	10.590062	602.330123	-13281.399747	111.353702
159.69	-0.000477	-0.000755	10.590059	4149.784847	-94942.644198	111.305817
160.20	-0.000399	-0.000726	10.590060	-Inf	Inf	111.314553
160.71	-0.000424	-0.000720	10.590060	-Inf	Inf	111.326151
161.22	-0.000333	-0.000677	10.590062	-Inf	Inf	111.364111
161.73	-0.000320	-0.000654	10.590064	-Inf	Inf	111.415093
162.24	-0.000234	-0.000613	10.590065	-Inf	Inf	111.424115
162.75	-0.000195	-0.000613	10.590065	-Inf	Inf	111.422617
163.26	-0.000173	-0.000589	10.590061	-Inf	Inf	111.344191
163.77	-0.000133	-0.000606	10.590060	-668.965568	15983.357895	111.321022
164.28	-0.000139	-0.000574	10.590064	-678.025867	16192.012088	111.406111
164.79	-0.000161	-0.000582	10.590068	3475.618580	-79423.368878	111.495127
165.30	-0.000140	-0.000519	10.590063	-156.119493	4177.877556	111.379089
165.81	-0.000194	-0.000517	10.590057	-219.688518	5641.089802	111.259879
166.32	-0.000202	-0.000462	10.590057	-280.821010	7048.342102	111.262964
166.83	-0.000245	-0.000474	10.590061	-294.570297	7364.940270	111.352905
167.34	-0.000252	-0.000433	10.590062	-305.488770	7616.289923	111.362578
167.85	-0.000326	-0.000471	10.590062	-309.519713	7709.082732	111.364370
168.36	-0.000287	-0.000456	10.590065	-309.832288	7716.353369	111.436169
168.87	-0.000360	-0.000512	10.590066	-308.074243	7675.906031	111.457409
169.38	-0.000316	-0.000516	10.594840	-305.683606	7730.976079	216.483981
169.89	-0.000337	-0.000579	10.594880	-295.059405	7487.333716	217.364530
170.40	-0.000303	-0.000595	10.594879	-294.653840	7477.968428	217.336567
170.91	-0.000293	-0.000649	10.592257	-283.374028	7157.844650	159.657393
171.42	-0.000254	-0.000639	10.591195	-282.267455	7107.870963	136.286005
171.93	-0.000259	-0.000655	10.590103	-275.464998	6926.101473	112.267364
172.44	-0.000207	-0.000618	10.590099	-287.693706	7207.501470	112.171335
172.95	-0.000207	-0.000609	10.590097	-270.627102	6814.602653	112.141346
173.46	-0.000200	-0.000575	10.590089	-292.135483	7309.523747	111.955831
173.97	-0.000179	-0.000584	10.590083	-277.309856	6968.106338	111.825593
174.48	-0.000185	-0.000568	10.590080	-291.393869	7292.235695	111.749462
174.99	-0.000206	-0.000591	10.590076	-278.392061	6992.850451	111.665450
175.50	-0.000185	-0.000589	10.590073	-287.773472	7208.740073	111.601297
176.01	-0.000228	-0.000608	10.590076	-271.124178	6825.552075	111.670977
176.52	-0.000200	-0.000591	10.590080	-270.747916	6816.995216	111.770720
177.03	-0.000252	-0.000605	10.590085	-255.618490	6468.831313	111.875962
177.54	-0.000203	-0.000565	10.590093	-228.816500	5852.036464	112.045560
178.05	-0.000255	-0.000556	10.590089	-234.076947	5973.043759	111.963145
178.56	-0.000213	-0.000504	10.590083	-186.715734	4882.666940	111.831607
179.07	-0.000252	-0.000486	10.590080	-226.469852	5797.720575	111.762388
179.58	-0.000218	-0.000441	10.590082	-211.034596	5442.457712	111.811460
180.09	-0.000243	-0.000445	10.590075	-250.035915	6340.092148	111.656365
180.61	-0.000223	-0.000417	10.590076	-262.112999	6618.122771	111.675714
181.12	-0.000230	-0.000425	10.590074	-273.458784	6879.244314	111.623681
181.63	-0.000221	-0.000408	10.590097	-291.802233	7302.047690	112.142082
182.14	-0.000222	-0.000432	10.590083	-289.015792	7237.575140	111.827643
182.65	-0.000210	-0.000441	10.590102	-302.816157	7555.683854	112.236892
183.16	-0.000222	-0.000502	10.590106	-293.975412	7352.282743	112.341647
183.67	-0.000205	-0.000533	10.590096	-301.140053	7516.971063	112.113421
184.18	-0.000221	-0.000592	10.590123	-289.013525	7238.447138	112.709220
184.69	-0.000200	-0.000603	10.590113	-293.154338	7333.544320	112.496598
185.20	-0.000220	-0.000625	10.590136	-276.187712	6943.505414	112.999323
185.71	-0.000190	-0.000585	10.590130	-280.067522	7032.673005	112.861668
186.22	-0.000226	-0.000563	10.590111	-260.272270	6576.560569	112.449100
186.73	-0.000183	-0.000488	10.590096	-258.760351	6541.401224	112.109985
187.24	-0.000227	-0.000435	10.590085	-248.351152	6301.523695	111.860716
187.75	-0.000185	-0.000341	10.590089	-227.763445	5827.702354	111.956689
188.26	-0.000220	-0.000287	10.590110	-236.746385	6034.972835	112.420553
188.77	-0.000176	-0.000215	10.591613	-188.851778	4967.113407	145.481045
189.28	-0.000207	-0.000207	10.593929	-248.495501	6393.519176	196.445973
189.79	-0.000181	-0.000180	10.594827	-255.260522	6569.960465	216.204030
190.30	-0.000204	-0.000216	10.594904	-281.136758	7167.399054	217.898638
190.81	-0.000193	-0.000221	10.594899	-297.080196	7534.287032	217.779869
191.32	-0.000206	-0.000249	10.594912	-300.359723	7610.087534	218.072617
191.83	-0.000193	-0.000245	10.594908	-310.293485	7838.667055	217.984593
192.34	-0.000213	-0.000268	10.594876	-307.256879	7768.020553	217.274062
192.85	-0.000193	-0.000248	10.594883	-315.828934	7965.503626	217.424106
193.36	-0.000213	-0.000276	10.594891	-309.409676	7817.917718	217.598886
193.87	-0.000189	-0.000288	10.594892	-313.084075	7902.529340	217.625802
194.38	-0.000217	-0.000349	10.590058	-301.136992	7516.031318	111.284206
194.89	-0.000184	-0.000377	10.590056	-300.542106	7502.282334	111.231830
195.40	-0.000217	-0.000433	10.590055	-282.409833	7084.853236	111.202847
195.91	-0.000180	-0.000442	10.590057	-278.853041	7003.033830	111.256973
196.42	-0.000211	-0.000473	10.590060	-250.683680	6354.654347	111.323324
196.93	-0.000169	-0.000458	10.590055	-236.292378	6023.258121	111.215174
197.44	-0.000202	-0.000476	10.590053	-218.214769	5607.059035	111.159182
197.95	-0.000166	-0.000459	10.590053	-187.120809	4891.285518	111.158045
198.46	-0.000195	-0.000474	10.590055	-188.984176	4934.232478	111.208483
198.97	-0.000171	-0.000462	10.590059	-213.563149	5500.135170	111.306869
199.48	-0.000191	-0.000477	10.590085	-189.377398	4943.985219	111.877088
199.99	-0.000173	-0.000469	10.590087	-233.096884	5950.439979	111.922067
200.50	-0.000186	-0.000493	10.590077	-232.182378	5929.144202	111.689139
201.01	-0.000167	-0.000481	10.590080	-253.060096	6409.826541	111.769667
201.52	-0.000198	-0.000500	10.590075	-252.379799	6394.052067	111.660674
202.03	-0.000174	-0.000472	10.590082	-275.836943	6934.178764	111.804962
202.54	-0.000197	-0.000467	10.590088	-267.900791	6751.629343	111.936680
203.05	-0.000177	-0.000418	10.590083	-288.398600	7223.362782	111.823056
203.56	-0.000192	-0.000388	10.590099	-285.515314	7157.352441	112.168295
204.07	-0.000166	-0.000334	10.590080	-295.984411	7397.911847	111.752748
204.58	-0.000200	-0.000308	10.590077	-294.807724	7370.760086	111.690910
205.09	-0.000152	-0.000262	10.590082	-300.270890	7496.649987	111.814625
205.60	-0.000195	-0.000267	10.590076	-293.360683	7337.433070	111.675048
206.12	-0.000157	-0.000261	10.590071	-295.277851	7381.450859	111.565578
206.63	-0.000185	-0.000313	10.590074	-273.002893	6868.749076	111.622930
207.14	-0.000161	-0.000341	10.590106	-266.991705	6731.114030	112.329258
207.65	-0.000185	-0.000404	10.593007	-250.421649	6416.584310	176.152465
208.16	-0.000162	-0.000423	10.594893	-235.503508	6116.668112	217.641897
208.67	-0.000186	-0.000451	10.594913	-232.088354	6038.518041	218.086036
209.18	-0.000158	-0.000430	10.594906	-247.714050	6398.053156	217.930504
209.69	-0.000185	-0.000423	10.591587	-239.241405	6126.480629	144.923238
210.20	-0.000165	-0.000368	10.591529	-268.471657	6798.014836	143.648639
210.71	-0.000182	-0.000369	10.591298	-258.515179	6563.471854	138.546907
211.22	-0.000166	-0.000334	10.591640	-281.435835	7098.999055	146.084216
211.73	-0.000188	-0.000341	10.590215	-265.614205	6701.910997	114.720250
212.24	-0.000162	-0.000312	10.590134	-285.782706	7164.315573	112.938910
212.75	-0.000190	-0.000309	10.590120	-275.797652	6934.153665	112.643793
213.26	-0.000161	-0.000282	10.590127	-290.359839	7269.518444	112.785181
213.77	-0.000191	-0.000304	10.590125	-278.091245	6987.071367	112.758237
214.28	-0.000147	-0.000322	10.590136	-281.189264	7058.620599	112.981347
214.79	-0.000185	-0.000387	10.593604	-263.244583	6725.530547	189.284580
215.30	-0.000147	-0.000433	10.592690	-256.765812	6555.314476	169.179133
215.81	-0.000178	-0.000477	10.595118	-244.459413	6328.032178	222.604292
216.32	-0.000147	-0.000455	10.597977	-249.190457	6502.857196	285.483828
216.83	-0.000177	-0.000440	10.598185	-247.317068	6464.530133	290.060381
217.34	-0.000154	-0.000376	10.599786	-265.007890	6908.711100	325.301744
217.85	-0.000177	-0.000336	10.607207	-267.494158	7137.096125	488.564474
218.36	-0.000157	-0.000276	10.608817	-284.608932	7568.190720	523.971866
218.87	-0.000181	-0.000258	10.622009	-282.749909	7829.655137	814.205582
219.38	-0.000160	-0.000229	10.595090	-293.827164	7463.800599	221.974420
219.89	-0.000179	-0.000245	10.571565	-282.695376	6664.996654	-295.570594
220.40	-0.000153	-0.000226	10.572283	-295.669893	6980.228025	-279.771607
220.91	-0.000172	-0.000249	10.571157	-279.932521	6591.989488	-304.544168
221.42	-0.000145	-0.000249	10.570147	-291.360506	6831.754266	-326.773513
221.93	-0.000172	-0.000281	10.570339	-272.661785	6405.743681	-322.550035
222.44	-0.000134	-0.000256	10.578147	-288.406299	6948.273036	-150.755517
222.95	-0.000166	-0.000251	10.570122	-276.753232	6494.920845	-327.325802
223.46	-0.000139	-0.000189	10.570087	-299.325136	7013.712584	-328.094419
223.97	-0.000165	-0.000155	10.570087	-301.876878	7072.465498	-328.082321
224.48	-0.000133	-0.000110	10.570086	-315.947666	7396.343033	-328.108262
224.99	-0.000165	-0.000113	10.570091	-313.828799	7347.689370	-327.991939
225.50	-0.000132	-0.000113	10.570094	-315.459602	7385.282132	-327.942127
226.01	-0.000166	-0.000156	10.570084	-304.099667	7123.553826	-328.158178
226.52	-0.000132	-0.000182	10.570082	-302.154164	7078.734975	-328.190639
227.03	-0.000158	-0.000234	10.570085	-286.370575	6715.475257	-328.120918
227.54	-0.000132	-0.000240	10.570087	-290.009122	6799.264534	-328.091167
228.05	-0.000151	-0.000267	10.570089	-277.427916	6509.690748	-328.051802
228.56	-0.000132	-0.000251	10.570096	-288.588430	6766.777931	-327.883954
229.07	-0.000154	-0.000273	10.567334	-274.226179	6372.451960	-388.659009
229.58	-0.000131	-0.000251	10.568271	-288.776024	6728.996013	-368.043611
230.09	-0.000154	-0.000249	10.568354	-278.657769	6498.001434	-366.208103
230.60	-0.000128	-0.000206	10.566655	-296.592014	6871.662021	-403.581735
231.11	-0.000155	-0.000198	10.567069	-287.900447	6681.127889	-394.478828
231.62	-0.000131	-0.000175	10.567392	-301.419593	6999.780360	-387.375717
232.14	-0.000155	-0.000194	10.567438	-288.259182	6697.898132	-386.358922
232.65	-0.000128	-0.000197	10.567712	-295.016202	6859.758790	-380.333707
233.16	-0.000153	-0.000223	10.567997	-282.253035	6572.521569	-374.069869
233.67	-0.000123	-0.000213	10.568033	-290.661767	6766.922102	-373.273936
234.18	-0.000158	-0.000228	10.567572	-281.656753	6548.986874	-383.426245
234.69	-0.000125	-0.000195	10.567666	-293.553333	6825.027502	-381.341560
235.20	-0.000148	-0.000205	10.567915	-285.356326	6642.061900	-375.878832
235.71	-0.000127	-0.000191	10.567839	-296.999578	6908.330678	-377.552825
236.22	-0.000143	-0.000222	10.566886	-283.637728	6578.782382	-398.503532
236.73	-0.000118	-0.000227	10.567098	-288.933637	6705.578992	-393.842175
237.24	-0.000149	-0.000252	10.567647	-276.871673	6440.565546	-381.776393
237.75	-0.000120	-0.000234	10.567787	-286.021735	6654.427408	-378.694738
238.26	-0.000152	-0.000231	10.569850	-278.354882	6525.522150	-333.304989
238.77	-0.000124	-0.000174	10.569894	-301.408370	7057.228769	-332.328957
239.28	-0.000145	-0.000145	10.569904	-297.757584	6973.424982	-332.103774
239.79	-0.000118	-0.000090	10.569892	-319.424841	7471.922539	-332.366367
240.30	-0.000142	-0.000084	10.581890	-316.245010	7675.420062	-68.424513
240.81	-0.000115	-0.000074	10.588249	-322.028553	7955.228922	71.488257
241.32	-0.000144	-0.000105	10.590744	-310.959879	7757.974454	126.378456
241.83	-0.000114	-0.000101	10.590001	-315.792424	7852.082658	110.032974
242.34	-0.000138	-0.000130	10.590002	-304.376969	7589.325784	110.054903
242.85	-0.000111	-0.000116	10.590000	-312.086320	7766.735599	110.000735
243.36	-0.000141	-0.000141	10.590001	-300.349213	7496.576935	110.025080
243.87	-0.000111	-0.000126	10.590015	-309.710895	7712.393282	110.324239
244.38	-0.000136	-0.000143	10.590025	-301.531601	7524.348886	110.553336
244.89	-0.000113	-0.000132	10.589999	-307.772324	7667.398643	109.971880
245.40	-0.000134	-0.000142	10.590000	-302.029632	7535.233278	109.999964
245.91	-0.000112	-0.000124	10.589984	-310.575181	7731.571024	109.639504
246.42	-0.000140	-0.000139	10.589999	-301.824999	7530.489280	109.968085
246.93	-0.000114	-0.000129	10.590000	-309.820085	7714.560438	109.993850
247.44	-0.000134	-0.000164	10.589990	-294.908826	7371.077494	109.773627
247.95	-0.000103	-0.000174	10.589977	-299.536630	7477.318193	109.497217
248.46	-0.000133	-0.000222	10.589990	-273.249729	6872.503404	109.784036
248.97	-0.000105	-0.000227	10.589998	-285.741292	7160.244104	109.964514
249.48	-0.000138	-0.000243	10.590000	-266.815431	6724.614478	110.000022
249.99	-0.000102	-0.000222	10.590000	-284.711016	7136.564446	109.999749
250.50	-0.000138	-0.000241	10.590000	-267.594940	6742.555255	109.996914
251.01	-0.000101	-0.000232	10.589999	-282.075579	7075.873375	109.976650
251.52	-0.000131	-0.000285	10.589999	-258.239416	6527.184703	109.987773
252.03	-0.000098	-0.000312	10.590000	-261.854695	6610.419285	109.999311
252.54	-0.000128	-0.000368	10.590000	-236.184987	6019.510848	109.998785
253.05	-0.000103	-0.000382	10.590000	-246.646201	6260.325249	109.999579
253.56	-0.000132	-0.000415	10.590000	-225.102758	5764.403538	110.000505
254.07	-0.000110	-0.000392	10.590000	-243.523449	6188.442862	110.001775
254.58	-0.000136	-0.000409	10.590003	-221.970070	5692.353209	110.060682
255.09	-0.000103	-0.000399	10.590013	-237.256213	6044.480649	110.295019
255.60	-0.000131	-0.000431	10.590021	-208.905379	5392.025301	110.458283
256.11	-0.000109	-0.000437	10.590023	-228.013072	5831.922054	110.500432
256.62	-0.000130	-0.000450	10.590012	-191.482933	4990.767084	110.268015
257.13	-0.000105	-0.000416	10.590011	-229.203458	5859.061558	110.249790
257.65	-0.000130	-0.000393	10.590010	-214.926798	5530.387409	110.220854
258.16	-0.000097	-0.000327	10.590011	-252.342376	6391.698697	110.237523
258.67	-0.000126	-0.000304	10.590012	-239.223786	6089.732882	110.256257
259.18	-0.000095	-0.000254	10.590011	-271.675917	6836.762643	110.249409
259.69	-0.000120	-0.000247	10.590017	-257.071005	6500.691769	110.372652
260.20	-0.000095	-0.000207	10.590036	-284.784799	7139.098050	110.796389
260.71	-0.000118	-0.000213	10.590036	-268.542364	6765.194652	110.788672
261.22	-0.000095	-0.000185	10.590035	-287.964704	7212.281870	110.780650
261.73	-0.000123	-0.000186	10.590035	-277.438483	6969.968783	110.777717
262.24	-0.000095	-0.000165	10.590035	-291.305401	7289.181162	110.778359
262.75	-0.000119	-0.000191	10.590035	-275.794638	6932.128425	110.778098
263.26	-0.000093	-0.000190	10.590035	-285.349456	7152.077017	110.778046
263.77	-0.000118	-0.000232	10.590036	-261.329375	6599.157317	110.791732
264.28	-0.000095	-0.000236	10.590035	-272.312234	6851.965328	110.778724
264.79	-0.000120	-0.000260	10.590035	-250.523617	6350.398636	110.778547
265.30	-0.000090	-0.000253	10.590036	-268.093190	6754.846860	110.781088
265.81	-0.000122	-0.000273	10.590036	-248.017299	6292.725990	110.799455
266.32	-0.000091	-0.000258	10.590051	-266.224433	6712.196265	111.131698
266.83	-0.000125	-0.000279	10.590061	-243.702642	6193.984188	111.352848
267.34	-0.000096	-0.000269	10.590054	-262.406496	6624.364681	111.185130
267.85	-0.000124	-0.000284	10.590048	-238.274550	6068.719009	111.054891
268.36	-0.000095	-0.000262	10.590049	-266.677178	6722.554097	111.070438
268.87	-0.000123	-0.000270	10.590052	-244.343087	6208.516478	111.152030
269.38	-0.000097	-0.000235	10.590052	-269.897637	6796.759942	111.139112
269.89	-0.000119	-0.000221	10.590065	-262.886951	6635.673242	111.422321
270.40	-0.000097	-0.000173	10.590055	-286.390250	7176.498034	111.219025
270.91	-0.000120	-0.000154	10.590055	-282.238561	7080.919329	111.211163
271.42	-0.000087	-0.000121	10.590056	-303.878299	7579.091119	111.242098
271.93	-0.000113	-0.000136	10.590058	-289.994738	7259.542872	111.286528
272.44	-0.000081	-0.000125	10.590056	-303.410628	7568.306166	111.223648
272.95	-0.000108	-0.000157	10.590055	-283.733776	7115.338381	111.210886
273.46	-0.000085	-0.000163	10.590060	-289.907462	7257.568290	111.319423
273.97	-0.000117	-0.000194	10.590063	-267.276726	6736.676414	111.376587
274.48	-0.000097	-0.000186	10.590052	-281.997386	7075.299081	111.145832
274.99	-0.000124	-0.000209	10.590051	-259.776150	6563.751386	111.124439
275.50	-0.000098	-0.000192	10.590055	-280.908808	7050.315966	111.217936
276.01	-0.000123	-0.000206	10.590055	-259.769596	6563.697287	111.216750
276.52	-0.000090	-0.000184	10.590054	-280.903761	7050.157715	111.177806
277.03	-0.000118	-0.000189	10.590053	-264.536351	6673.363892	111.157162
277.54	-0.000092	-0.000165	10.590051	-288.194807	7217.926017	111.111909
278.05	-0.000116	-0.000173	10.590051	-270.771134	6816.844735	111.117352
278.56	-0.000088	-0.000143	10.590053	-293.298940	7335.484650	111.172225
279.07	-0.000114	-0.000143	10.590061	-283.654009	7113.649272	111.351213
279.58	-0.000086	-0.000119	10.590055	-300.673289	7505.270360	111.201526
280.09	-0.000114	-0.000129	10.590052	-288.878147	7233.681748	111.136201
280.60	-0.000091	-0.000105	10.590050	-306.750665	7645.067585	111.104330
281.11	-0.000112	-0.000120	10.590050	-293.343204	7336.431459	111.103414
281.62	-0.000081	-0.000112	10.590052	-302.836419	7555.015888	111.154792
282.13	-0.000109	-0.000133	10.590050	-282.826026	7094.323636	111.097715
282.64	-0.000082	-0.000128	10.590050	-297.182541	7424.818314	111.109748
283.15	-0.000106	-0.000160	10.590051	-272.801759	6863.599455	111.127296
283.67	-0.000079	-0.000152	10.590051	-291.179750	7286.659590	111.132130
284.18	-0.000105	-0.000179	10.590048	-262.678967	6630.512753	111.066728
284.69	-0.000082	-0.000159	10.590048	-288.727709	7230.136128	111.057425
285.20	-0.000107	-0.000159	10.590049	-270.106643	6801.497394	111.068722
285.71	-0.000079	-0.000108	10.590051	-303.280220	7565.206381	111.130328
286.22	-0.000106	-0.000076	10.590056	-305.504471	7616.505159	111.223138
286.73	-0.000078	-0.000007	10.590058	-337.447548	8351.889776	111.286008
287.24	-0.000106	0.000021	10.590053	-348.867470	8614.657072	111.175924
287.75	-0.000084	0.000073	10.590050	-364.049399	8964.056197	111.096087
288.26	-0.000108	0.000069	10.590048	-367.558165	9044.792627	111.063501
288.77	-0.000082	0.000081	10.590047	-366.094037	9011.053999	111.030211
289.28	-0.000114	0.000038	10.590048	-355.970892	8778.043434	111.050027
289.79	-0.000083	0.000037	10.590049	-352.287100	8693.281189	111.085677
290.30	-0.000107	0.000002	10.590049	-340.627692	8424.877897	111.078332
290.81	-0.000078	-0.000000	10.590049	-339.615097	8401.576648	111.086286
291.32	-0.000107	-0.000038	10.590048	-323.801267	8037.514726	111.054850
291.83	-0.000079	-0.000038	10.590048	-326.854499	8107.801020	111.056680
292.34	-0.000108	-0.000073	10.590050	-306.400062	7636.998438	111.105877
292.85	-0.000077	-0.000086	10.590088	-309.473215	7708.623041	111.946902
293.36	-0.000106	-0.000123	10.590103	-282.948234	7098.372401	112.276332
293.87	-0.000080	-0.000139	10.590083	-288.628866	7228.674462	111.833576
294.38	-0.000099	-0.000203	10.590079	-245.927135	6245.585513	111.728940
294.89	-0.000078	-0.000240	10.590082	-249.737475	6333.385510	111.812193
295.40	-0.000106	-0.000313	10.590089	-195.329593	5081.093406	111.963590
295.91	-0.000081	-0.000336	10.590077	-219.342812	5633.594564	111.701346
296.42	-0.000110	-0.000374	10.590077	-166.957445	4427.688606	111.689198
296.93	-0.000085	-0.000342	10.590080	-212.473050	5475.518366	111.761790
297.44	-0.000108	-0.000325	10.590080	-185.681207	4858.778063	111.760618
297.95	-0.000085	-0.000272	10.590082	-237.747812	6057.374011	111.799246
298.46	-0.000105	-0.000237	10.590112	-229.944752	5878.441341	112.458499
298.97	-0.000084	-0.000179	10.590091	-274.263535	6898.175928	112.011472
299.48	-0.000111	-0.000160	10.590077	-261.754312	6609.890952	111.699597
299.99	-0.000080	-0.000120	10.590078	-296.323371	7405.679595	111.719356
300.50	-0.000105	-0.000128	10.590079	-277.933665	6982.377763	111.741229
301.01	-0.000082	-0.000111	10.590121	-300.600807	7505.125521	112.654977
301.52	-0.000098	-0.000139	10.590105	-275.860283	6935.242695	112.307331
302.03	-0.000070	-0.000130	10.590137	-293.418262	7340.157787	113.009825
302.54	-0.000095	-0.000147	10.590106	-271.426069	6833.193104	112.330708
303.05	-0.000067	-0.000125	10.594892	-294.659043	7478.395559	217.629744
303.56	-0.000099	-0.000122	10.594888	-284.222496	7238.057267	217.541473
304.07	-0.000070	-0.000085	10.594880	-308.412233	7794.698816	217.352679
304.58	-0.000101	-0.000096	10.594888	-296.185771	7513.439345	217.533435
305.09	-0.000069	-0.000072	10.594907	-313.155587	7904.529018	217.962999
305.60	-0.000098	-0.000083	10.594900	-297.643611	7547.275264	217.797605
306.11	-0.000072	-0.000056	10.594899	-317.900072	8013.551299	217.777796
306.62	-0.000097	-0.000058	10.594910	-308.316196	7793.189193	218.021476
307.13	-0.000074	-0.000034	10.594911	-325.835772	8196.507646	218.044169
307.64	-0.000101	-0.000067	10.594913	-305.117005	7719.621243	218.094280
308.15	-0.000072	-0.000074	10.594917	-311.548731	7867.755871	218.169169
308.66	-0.000101	-0.000125	10.594912	-282.839605	7206.764293	218.057245
309.18	-0.000075	-0.000135	10.594913	-291.824284	7413.620213	218.087465
309.69	-0.000100	-0.000165	10.594903	-265.504104	6807.502397	217.862079
310.20	-0.000078	-0.000137	10.594885	-290.510327	7382.724563	217.468574
310.71	-0.000103	-0.000125	10.594911	-278.792868	7113.596450	218.044513
311.22	-0.000071	-0.000078	10.594920	-310.577847	7845.484257	218.243383
311.73	-0.000103	-0.000076	10.594917	-303.338139	7678.763339	218.181061
312.24	-0.000072	-0.000055	10.594929	-318.904307	8037.356789	218.434427
312.75	-0.000100	-0.000094	10.594918	-292.628871	7432.257779	218.198364
313.26	-0.000067	-0.000110	10.594925	-297.162704	7536.778113	218.344356
313.77	-0.000096	-0.000167	10.594931	-254.114708	6545.971256	218.481036
314.28	-0.000071	-0.000191	10.594930	-265.693123	6812.471924	218.451968
314.79	-0.000097	-0.000240	10.594935	-223.018542	5830.247845	218.576131
315.30	-0.000067	-0.000242	10.594932	-244.164965	6316.957983	218.506218
315.81	-0.000096	-0.000270	10.594917	-193.488423	5150.054681	218.175555
316.32	-0.000067	-0.000247	10.589886	-239.994709	6104.576951	107.487739
316.83	-0.000102	-0.000254	10.589887	-202.291334	5236.682880	107.511315
317.34	-0.000074	-0.000235	10.589888	-242.142447	6154.070471	107.538596
317.85	-0.000094	-0.000247	10.589887	-202.569458	5243.081036	107.507354
318.36	-0.000064	-0.000219	10.589878	-247.670940	6281.102149	107.316969
318.87	-0.000092	-0.000229	10.588328	-215.974719	5515.724105	73.222617
319.38	-0.000061	-0.000206	10.588406	-254.379442	6401.588957	74.940855
319.89	-0.000091	-0.000233	10.585864	-208.776898	5293.206210	19.015498
320.40	-0.000067	-0.000236	10.597810	-241.683578	6326.216199	281.825396
320.91	-0.000094	-0.000275	10.588159	-183.855041	4772.434726	69.497260
321.42	-0.000065	-0.000259	10.567709	-231.796963	5404.400948	-380.402951
321.93	-0.000092	-0.000255	10.567766	-205.717680	4805.375763	-379.152385
322.44	-0.000065	-0.000191	10.569786	-261.901053	6145.286885	-334.710816
322.95	-0.000090	-0.000148	10.569865	-259.889402	6100.798778	-332.975260
323.46	-0.000061	-0.000085	10.569864	-307.146963	7188.636280	-332.989937
323.97	-0.000088	-0.000077	10.567711	-298.921932	6949.639589	-380.360185
324.48	-0.000059	-0.000056	10.568152	-316.418964	7362.587186	-370.657170
324.99	-0.000089	-0.000082	10.568884	-293.252051	6846.175140	-354.552978
325.50	-0.000065	-0.000079	10.567983	-306.907972	7139.761725	-374.363739
326.01	-0.000095	-0.000099	10.567796	-284.624700	6622.480598	-378.492065
326.52	-0.000073	-0.000098	10.568352	-299.810505	6984.872847	-366.262793
327.03	-0.000099	-0.000132	10.568304	-264.626835	6173.868267	-367.301154
327.54	-0.000074	-0.000144	10.568584	-280.213748	6539.121811	-361.150243
328.05	-0.000101	-0.000191	10.569883	-234.172215	5509.208267	-332.583852
328.56	-0.000076	-0.000209	10.569891	-247.037321	5805.544197	-332.406820
329.07	-0.000096	-0.000263	10.569879	-191.089266	4517.365658	-332.667648
329.58	-0.000065	-0.000280	10.567402	-222.697100	5187.836418	-387.164996
330.09	-0.000089	-0.000323	10.566872	-164.205286	3829.155616	-398.820995
330.60	-0.000059	-0.000333	10.565136	-206.385073	4760.090981	-437.004764
331.11	-0.000087	-0.000345	10.565123	-161.415628	3724.602057	-437.298260
331.62	-0.000061	-0.000309	10.567643	-213.711925	4986.563005	-381.859143
332.13	-0.000083	-0.000288	10.567519	-191.101303	4463.208351	-384.592914
332.64	-0.000063	-0.000216	10.566958	-248.441481	5770.235796	-396.921012
333.15	-0.000084	-0.000178	10.568386	-245.965243	5746.163335	-365.509217
333.66	-0.000064	-0.000108	10.567922	-296.801660	6905.696737	-375.719365
334.17	-0.000092	-0.000081	10.567660	-294.818457	6854.004438	-381.480624
334.69	-0.000069	-0.000034	10.567573	-325.491938	7558.084247	-383.401046
335.20	-0.000097	-0.000011	10.567754	-333.995822	7758.020176	-379.414278
335.71	-0.000062	0.000042	10.567650	-358.458224	8318.731630	-381.708103
336.22	-0.000093	0.000062	10.567508	-378.809204	8783.938942	-384.822861
336.73	-0.000065	0.000113	10.567852	-392.475017	9106.445685	-377.263745
337.24	-0.000088	0.000110	10.567656	-412.494923	9562.777581	-381.574908
