Length [m]	OTDR [V]	Brillouin intensity [V]	Fitted Frequency [GHz]	Temperature [”]	Compensated Strain [レュ]	Uncompensated Strain [レュ]
0.51	0.006919	0.036365	10.504652	-152.627054	2111.530638	-1767.659792
1.02	0.006933	0.039671	10.476206	-129.959913	933.691849	-2393.468231
1.53	0.007026	0.042495	10.455219	-93.414083	-391.601139	-2855.177820
2.04	0.007023	0.044820	10.442750	-54.089503	-1584.416285	-3129.498759
2.55	0.006992	0.046738	10.436990	-28.050744	-2316.657367	-3256.213371
3.06	0.006885	0.048297	10.433669	-16.741411	-2653.583174	-3329.271852
3.57	0.006848	0.049599	10.431582	-21.761825	-2586.162388	-3375.199929
4.08	0.006825	0.050686	10.431104	-25.814447	-2503.894916	-3385.714353
4.59	0.006861	0.051631	10.430986	-16.167754	-2728.686163	-3388.316284
5.10	0.006921	0.052402	10.431370	5.434550	-3217.093735	-3379.855089
5.61	0.006966	0.053024	10.431816	24.651083	-3649.163562	-3370.041132
6.12	0.006961	0.053454	10.430767	33.375312	-3874.184988	-3393.118634
6.63	0.006911	0.053770	10.430299	26.750089	-3732.484302	-3403.430040
7.14	0.006851	0.053972	10.430623	12.161029	-3389.165282	-3396.291145
7.65	0.006835	0.054160	10.430480	0.396063	-3121.645975	-3399.444938
8.16	0.006853	0.054322	10.430324	4.096244	-3210.422957	-3402.879070
8.67	0.006920	0.054483	10.430596	20.478072	-3581.237193	-3396.879168
9.18	0.007003	0.054579	10.430860	41.039189	-4048.479034	-3391.090837
9.69	0.007024	0.054600	10.430916	53.864506	-4342.421539	-3389.858478
10.20	0.006985	0.054526	10.430676	55.521522	-4386.091672	-3395.129933
10.71	0.006904	0.054403	10.430469	47.720181	-4211.270225	-3399.673143
11.22	0.006823	0.054282	10.429785	41.989847	-4095.141438	-3414.727239
11.73	0.006798	0.054217	10.429211	44.627492	-4169.102262	-3427.359953
12.24	0.006833	0.054202	10.429401	53.832515	-4376.610591	-3423.174068
12.75	0.006901	0.054237	10.429431	58.852629	-4491.486434	-3422.520192
13.26	0.006955	0.054231	10.429645	56.915308	-4441.946931	-3417.805016
13.77	0.006943	0.054190	10.429319	48.744553	-4261.389290	-3424.988231
14.28	0.006874	0.054088	10.430508	40.010435	-4032.895616	-3398.815691
14.79	0.006810	0.054023	10.430796	33.830614	-3884.013450	-3392.496268
15.30	0.006769	0.054001	10.430732	30.767035	-3814.949149	-3393.887281
15.81	0.006784	0.054085	10.429755	29.031769	-3797.551640	-3415.395660
16.32	0.006813	0.054193	10.429897	26.281469	-3730.958498	-3412.264795
16.83	0.006832	0.054300	10.430051	22.074307	-3630.555362	-3408.872969
17.34	0.006762	0.054309	10.430408	21.646104	-3612.465124	-3401.019346
17.85	0.006623	0.054254	10.430651	25.242741	-3689.659154	-3395.678103
18.36	0.006461	0.054140	10.430198	31.584251	-3846.085660	-3405.643659
18.87	0.006321	0.054051	10.430589	37.353439	-3969.881483	-3397.050017
19.38	0.006239	0.053992	10.429517	37.060841	-3987.868827	-3420.633266
19.89	0.006218	0.053993	10.430562	37.499991	-3973.858415	-3397.625555
20.40	0.006220	0.053992	10.430963	31.987956	-3837.738994	-3388.816956
20.91	0.006214	0.053983	10.430086	37.456515	-3983.835396	-3408.097336
21.42	0.006165	0.053934	10.431075	44.622288	-4125.996004	-3386.354939
21.93	0.006094	0.053870	10.432204	50.326642	-4231.268184	-3361.515160
22.44	0.006039	0.053799	10.433239	57.034256	-4361.792509	-3338.733371
22.95	0.006006	0.053767	10.433568	45.460644	-4087.793697	-3331.504462
23.46	0.006015	0.053757	10.433911	41.140646	-3980.435004	-3323.955443
23.97	0.006070	0.053800	10.434805	32.727705	-3766.149184	-3304.283241
24.48	0.006104	0.053835	10.434441	30.505443	-3723.387409	-3312.290269
24.99	0.006132	0.053869	10.433942	32.288643	-3775.950149	-3323.273601
25.50	0.006110	0.053855	10.433737	38.913861	-3933.181186	-3327.776791
26.02	0.006071	0.053846	10.433679	38.138439	-3916.679161	-3329.062579
26.53	0.006039	0.053817	10.433970	36.518432	-3872.671655	-3322.656640
27.04	0.006032	0.053833	10.433628	35.180532	-3849.757552	-3330.177128
27.55	0.006050	0.053861	10.433879	27.622323	-3669.992294	-3324.665588
28.06	0.006105	0.053925	10.434206	31.542272	-3752.675497	-3317.461042
28.57	0.006125	0.053949	10.434119	31.954505	-3764.190113	-3319.392834
29.08	0.006124	0.053943	10.433558	37.762570	-3910.812667	-3331.720056
29.59	0.006098	0.053887	10.432884	43.386685	-4055.817475	-3346.543354
30.10	0.006049	0.053824	10.432603	46.037480	-4123.337809	-3352.743682
30.61	0.006021	0.053758	10.433508	40.344356	-3971.406431	-3332.828420
31.12	0.006030	0.053742	10.434174	46.730195	-4103.032882	-3318.163686
31.63	0.006052	0.053714	10.434365	33.766683	-3800.225717	-3313.974563
32.14	0.006099	0.053729	10.434786	40.910292	-3954.944381	-3304.698050
32.65	0.006108	0.053674	10.434864	35.106470	-3819.543491	-3302.982063
33.16	0.006091	0.053672	10.434726	43.039480	-4005.358148	-3306.034062
33.67	0.006060	0.053594	10.435567	37.861746	-3866.754733	-3287.515205
34.18	0.006035	0.053610	10.436558	45.839137	-4027.548550	-3265.725152
34.69	0.006026	0.053559	10.436571	37.260971	-3829.772323	-3265.429643
35.20	0.006063	0.053633	10.436359	37.033728	-3829.432074	-3270.095011
35.71	0.006093	0.053611	10.437123	31.895582	-3693.539016	-3253.292267
36.22	0.006128	0.053675	10.437287	32.490427	-3703.457272	-3249.691386
36.73	0.006118	0.053628	10.436909	33.827295	-3742.953363	-3258.011211
37.24	0.006097	0.053637	10.437649	39.710781	-3861.322568	-3241.731260
37.75	0.006070	0.053574	10.438929	41.304984	-3868.488623	-3213.560575
38.26	0.006050	0.053593	10.439234	42.747107	-3894.650820	-3206.849873
38.77	0.006054	0.053580	10.438828	40.609711	-3854.816018	-3215.785425
39.28	0.006080	0.053640	10.438080	37.773895	-3806.791183	-3232.244743
39.79	0.006097	0.053646	10.437875	35.325909	-3755.165309	-3236.752834
40.30	0.006107	0.053665	10.437390	35.775809	-3776.703129	-3247.418714
40.81	0.006090	0.053618	10.437764	38.143117	-3822.570105	-3239.188748
41.32	0.006070	0.053573	10.438778	41.147162	-3868.337157	-3216.881639
41.83	0.006043	0.053489	10.438575	41.444731	-3879.867616	-3221.346417
42.34	0.006041	0.053444	10.439102	40.080704	-3836.309531	-3209.748231
42.85	0.006049	0.053399	10.439785	36.111073	-3729.193776	-3194.737370
43.36	0.006075	0.053386	10.439768	31.573847	-3625.126549	-3195.098112
43.87	0.006084	0.053362	10.439720	30.253542	-3595.838493	-3196.152084
44.38	0.006094	0.053363	10.439773	32.331717	-3642.453040	-3194.984190
44.89	0.006078	0.053341	10.439740	36.548256	-3740.293923	-3195.725953
45.40	0.006065	0.053349	10.439994	41.117822	-3839.612547	-3190.125350
45.91	0.006049	0.053365	10.440703	42.620975	-3857.879791	-3174.543484
46.42	0.006050	0.053412	10.440966	40.974153	-3813.905982	-3168.758507
46.93	0.006061	0.053457	10.441310	37.578496	-3727.802563	-3161.187790
47.44	0.006078	0.053520	10.441433	35.074647	-3667.315293	-3158.469610
47.95	0.006080	0.053524	10.441710	35.752672	-3676.544852	-3152.385272
48.46	0.006070	0.053519	10.441702	39.461278	-3762.084551	-3152.546335
48.97	0.006050	0.053453	10.442476	42.583355	-3816.120169	-3135.534859
49.48	0.006032	0.053381	10.447497	44.348054	-3740.942479	-3025.072215
49.99	0.006025	0.053274	10.468259	42.729099	-3224.834526	-2568.304150
50.50	0.006036	0.053158	10.503053	40.295951	-2366.365908	-1802.835010
51.01	0.006044	0.052935	10.533263	37.664186	-1609.036103	-1138.204049
51.53	0.006063	0.052593	10.556440	39.106668	-1107.709143	-628.310880
52.04	0.006065	0.052073	10.561103	43.209455	-1094.610676	-525.724860
52.55	0.006061	0.051426	10.563405	47.924037	-1150.066333	-475.098800
53.06	0.006046	0.050654	10.564857	50.625235	-1178.748462	-443.144392
53.57	0.006042	0.049861	10.566055	49.537863	-1126.085036	-416.785609
54.08	0.006041	0.049061	10.567245	44.587908	-984.706750	-390.618076
54.59	0.006047	0.048322	10.568171	38.642551	-826.479261	-370.235608
55.10	0.006058	0.047640	10.568590	33.670952	-702.373745	-361.019919
55.61	0.006069	0.047074	10.568783	32.147265	-662.843039	-356.769366
56.12	0.006067	0.046585	10.568145	32.608484	-688.189956	-370.820212
56.63	0.006054	0.046211	10.567998	32.984663	-700.221871	-374.037159
57.14	0.006035	0.045908	10.568044	32.551806	-689.203887	-373.031977
57.65	0.006024	0.045703	10.568093	30.327924	-636.871292	-371.944906
58.16	0.006020	0.045555	10.568281	25.753576	-527.252421	-367.825046
58.67	0.006033	0.045470	10.568659	23.034787	-455.951380	-359.511338
59.18	0.006038	0.045402	10.568259	20.845832	-414.784867	-368.308702
59.69	0.006055	0.045359	10.568958	21.789074	-420.368146	-352.922387
60.20	0.006057	0.045298	10.569776	23.670886	-444.818259	-334.923564
60.71	0.006046	0.045259	10.569283	25.286960	-493.401280	-345.780493
61.22	0.006034	0.045206	10.569004	25.230700	-498.542643	-351.920259
61.73	0.006027	0.045191	10.568765	24.068165	-477.290451	-357.175286
62.24	0.006032	0.045172	10.568978	20.637073	-393.400190	-352.493795
62.75	0.006040	0.045181	10.568872	19.488578	-369.399131	-354.818386
63.26	0.006047	0.045174	10.568769	19.484756	-371.691274	-357.088792
63.77	0.006052	0.045176	10.569273	21.084061	-396.876508	-345.994662
64.28	0.006070	0.045157	10.569329	23.828147	-458.751333	-344.761165
64.79	0.006179	0.045155	10.569240	25.524914	-499.852983	-346.709660
65.30	0.006479	0.045140	10.569636	24.843291	-475.032421	-338.000686
65.81	0.007141	0.045158	10.569560	23.684335	-450.122877	-339.688356
66.32	0.008288	0.045166	10.569065	20.943758	-398.450849	-350.577298
66.83	0.009841	0.045207	10.569509	20.726118	-383.195221	-340.803925
67.34	0.011441	0.045229	10.569866	21.877861	-401.478221	-332.953544
67.85	0.012631	0.045249	10.570328	23.902749	-437.424206	-322.778964
68.36	0.013114	0.045232	10.570851	25.314695	-457.867122	-311.275260
68.87	0.012855	0.045209	10.570087	25.663554	-483.517734	-328.083055
69.38	0.012058	0.045145	10.569467	22.870620	-433.524127	-341.722727
69.89	0.011009	0.045111	10.569371	20.828806	-388.749750	-343.847536
70.40	0.009934	0.045072	10.570001	18.487224	-320.314757	-329.984853
70.91	0.009002	0.045056	10.570309	18.903968	-322.799372	-323.203823
71.42	0.008257	0.045041	10.570164	20.060109	-352.759582	-326.395815
71.93	0.007692	0.045033	10.569564	21.566089	-401.254489	-339.586206
72.44	0.007277	0.045007	10.569999	22.569644	-414.329042	-330.021439
72.95	0.006968	0.044988	10.570676	22.149004	-389.039595	-315.134358
73.46	0.006741	0.044938	10.570296	20.234036	-353.716374	-323.489329
73.97	0.006586	0.044910	10.570553	18.985103	-319.027941	-317.824629
74.48	0.006468	0.044861	10.570987	18.040264	-287.268878	-308.276811
74.99	0.006398	0.044847	10.570467	18.888140	-318.783473	-319.720597
75.50	0.006337	0.044826	10.570234	19.918163	-347.876890	-324.855139
76.01	0.006293	0.044817	10.570276	21.473534	-382.700973	-323.920276
76.52	0.006254	0.044785	10.570249	21.313672	-379.651944	-324.522133
77.03	0.006232	0.044767	10.570581	20.688376	-357.592652	-317.210278
77.55	0.006202	0.044725	10.571037	18.785794	-303.293648	-307.192157
78.06	0.006196	0.044698	10.571220	18.035950	-281.805443	-303.159939
78.57	0.006187	0.044654	10.570397	17.109650	-279.452586	-321.255769
79.08	0.006182	0.044651	10.570081	18.068432	-308.819442	-328.215477
79.59	0.006177	0.044639	10.570405	18.685793	-315.557643	-321.086723
80.10	0.006170	0.044655	10.570302	19.792789	-343.427242	-323.363625
80.61	0.006158	0.044649	10.570491	19.654321	-335.874390	-319.199484
81.12	0.006160	0.044662	10.571024	19.142398	-311.796971	-307.472996
81.63	0.006159	0.044653	10.571046	18.025566	-285.577719	-306.986356
82.14	0.006174	0.044682	10.571245	18.139507	-283.607294	-302.604781
82.65	0.006185	0.044714	10.571521	19.018156	-297.478484	-296.542704
83.16	0.006201	0.044773	10.571840	20.680480	-328.379654	-289.517224
83.67	0.006208	0.044826	10.572210	22.161906	-353.942901	-281.372152
84.18	0.006212	0.044895	10.571340	23.184361	-397.547398	-300.515045
84.69	0.006203	0.044954	10.570909	22.985887	-402.928267	-310.006079
85.20	0.006205	0.045020	10.571815	23.050953	-383.516274	-290.060141
85.71	0.006213	0.045069	10.572393	22.284492	-352.560069	-277.361238
86.22	0.006218	0.045110	10.572862	22.522205	-347.209793	-267.037745
86.73	0.006199	0.045090	10.572368	22.590374	-360.173079	-277.906604
87.24	0.006163	0.045038	10.570858	23.037943	-405.296135	-311.121735
87.75	0.006097	0.044940	10.570852	22.514677	-393.397980	-311.262190
88.26	0.006003	0.044811	10.571395	21.501417	-357.539664	-299.306504
88.77	0.005932	0.044710	10.571507	20.357191	-328.623961	-296.849226
89.28	0.005954	0.044709	10.572280	19.695290	-295.548212	-279.832510
89.79	0.006035	0.044824	10.572022	19.932193	-306.954533	-285.511003
90.30	0.006043	0.044965	10.571453	21.210914	-349.506937	-298.023075
90.81	0.006066	0.045013	10.571589	22.376747	-373.207784	-295.031403
91.32	0.006095	0.044945	10.571765	22.941399	-382.167482	-291.179172
91.83	0.006118	0.044871	10.571597	23.064342	-388.873482	-294.876402
92.34	0.006121	0.044821	10.570789	22.870689	-403.049832	-312.651633
92.85	0.006123	0.044784	10.570886	21.785933	-375.834572	-310.510539
93.36	0.006132	0.044786	10.570987	21.494552	-366.801262	-308.291947
93.87	0.006143	0.044804	10.571540	20.606410	-333.600554	-296.123951
94.38	0.006147	0.044839	10.571700	20.800580	-334.384438	-292.607996
94.89	0.006149	0.044826	10.570858	21.353428	-366.527963	-311.130115
95.40	0.006154	0.044798	10.570675	21.844091	-382.026489	-315.139978
95.91	0.006157	0.044749	10.570708	21.837442	-381.111964	-314.413606
96.42	0.006157	0.044745	10.570844	21.499787	-370.204809	-311.423650
96.93	0.006157	0.044762	10.570989	21.215791	-360.334952	-308.244883
97.44	0.006157	0.044794	10.571413	21.035894	-346.417597	-298.919320
97.95	0.006157	0.044767	10.571032	20.530899	-343.566620	-307.288739
98.46	0.006157	0.044726	10.569260	19.105368	-351.617487	-346.271124
98.97	0.006157	0.044650	10.565952	12.164100	-268.128335	-419.050703
99.48	0.006157	0.044636	10.561045	-4.274037	-2.907388	-527.013064
99.99	0.006157	0.044668	10.554290	-35.200945	553.238234	-675.613556
100.50	0.006157	0.044779	10.546723	-76.792482	1336.138243	-842.091879
101.01	0.006154	0.044898	10.537841	-117.794534	2075.135304	-1037.505203
101.52	0.006154	0.045033	10.529505	-148.345344	2586.148734	-1220.898958
102.03	0.006154	0.045125	10.523909	-166.086548	2865.486703	-1344.008499
102.54	0.006154	0.045232	10.520764	-172.108486	2931.591168	-1413.184247
103.06	0.006154	0.045343	10.518438	-168.302033	2790.314819	-1464.364211
103.57	0.006154	0.045519	10.517794	-156.210288	2497.106069	-1478.540111
104.08	0.006154	0.045704	10.518818	-137.851668	2098.132346	-1455.994164
104.59	0.006154	0.045893	10.521207	-114.984645	1626.832719	-1403.442166
105.10	0.006154	0.046027	10.525033	-90.935836	1161.475673	-1319.271203
105.61	0.006154	0.046113	10.527860	-67.913844	696.710014	-1257.083543
106.12	0.006154	0.046128	10.531182	-47.796790	310.235230	-1184.002088
106.63	0.006154	0.046121	10.534281	-31.159574	-1.273640	-1115.822531
107.14	0.006154	0.046100	10.535535	-17.577990	-284.996888	-1088.235432
107.65	0.006157	0.046085	10.537117	-6.848710	-495.498105	-1053.433977
108.16	0.006154	0.046024	10.538667	0.551240	-630.089565	-1019.329142
108.67	0.006154	0.045944	10.539070	6.181721	-750.399743	-1010.456338
109.18	0.006154	0.045812	10.538779	8.958825	-821.052507	-1016.871136
109.69	0.006154	0.045690	10.538197	11.357354	-889.679661	-1029.666661
110.20	0.006154	0.045584	10.538344	13.038742	-925.001888	-1026.439847
110.71	0.006154	0.045536	10.539154	14.864890	-948.356973	-1008.618775
111.22	0.006154	0.045519	10.539577	15.992349	-964.540628	-999.299057
111.73	0.006154	0.045549	10.539347	17.949721	-1014.918480	-1004.373667
112.24	0.006149	0.045561	10.538768	18.352562	-1037.529430	-1017.096554
112.75	0.006149	0.045578	10.538903	19.010511	-1049.577599	-1014.141736
113.26	0.006149	0.045558	10.539603	19.174333	-1037.202647	-998.739927
113.77	0.006149	0.045553	10.539833	19.401082	-1037.121429	-993.683356
114.28	0.006149	0.045543	10.539453	19.731371	-1053.473001	-1002.028536
114.79	0.006149	0.045569	10.539034	20.643166	-1084.129549	-1011.250265
115.30	0.006149	0.045583	10.539260	20.656798	-1079.237750	-1006.284595
115.81	0.006149	0.045594	10.539733	20.816822	-1072.018767	-995.884486
116.32	0.006146	0.045576	10.539166	19.797420	-1061.624244	-1008.353712
116.83	0.006146	0.045560	10.538468	19.006729	-1059.513661	-1023.702847
117.34	0.006146	0.045525	10.539029	17.823498	-1019.348771	-1011.371414
117.85	0.006146	0.045520	10.539540	17.339193	-996.395131	-1000.110460
118.36	0.006146	0.045486	10.539443	16.840394	-987.164238	-1002.257993
118.87	0.006146	0.045480	10.539334	17.356276	-1001.548055	-1004.650754
119.38	0.006146	0.045441	10.539683	16.918958	-983.432477	-996.973091
119.89	0.006146	0.045435	10.539660	16.379226	-971.538367	-997.478966
120.40	0.006146	0.045421	10.539559	16.029243	-965.805798	-999.695777
120.91	0.006146	0.045433	10.539344	17.189484	-997.483550	-1004.436107
121.42	0.006146	0.045421	10.538443	19.187947	-1064.261545	-1024.252586
121.93	0.006146	0.045415	10.538241	23.038949	-1157.569105	-1028.696662
122.44	0.006146	0.045370	10.539101	28.336324	-1259.689516	-1009.787056
122.95	0.006146	0.045342	10.539239	32.548222	-1353.453348	-1006.741612
123.46	0.006146	0.045317	10.538753	30.957183	-1328.025823	-1017.423100
123.97	0.006143	0.045332	10.539230	26.124091	-1205.769879	-1006.930314
124.48	0.006141	0.045362	10.539480	25.824587	-1193.121153	-1001.441317
124.99	0.006135	0.045426	10.539718	24.966895	-1167.890856	-996.207691
125.50	0.006133	0.045460	10.541749	23.540799	-1088.221390	-951.525616
126.01	0.006133	0.045492	10.547166	22.405003	-937.134085	-832.343127
126.52	0.006132	0.045502	10.556872	22.315012	-711.210972	-618.809995
127.03	0.006131	0.045516	10.562637	22.269132	-577.194588	-491.978528
127.54	0.006130	0.045509	10.564377	21.700815	-523.986513	-453.702504
128.05	0.006130	0.045510	10.569916	21.047280	-381.199729	-331.848152
128.56	0.006128	0.045458	10.577938	20.398784	-181.250290	-155.355418
129.08	0.006127	0.045388	10.580144	19.724278	-114.860486	-106.837041
129.59	0.006131	0.045257	10.577782	18.443071	-139.843125	-158.801573
130.10	0.006123	0.045130	10.579390	17.259270	-75.508135	-123.426665
130.61	0.006111	0.044983	10.583571	16.087545	47.889403	-31.446536
131.12	0.006116	0.044880	10.582955	15.277360	52.332633	-44.998619
131.63	0.006124	0.044797	10.579437	14.615253	-13.557891	-122.390856
132.14	0.006136	0.044778	10.579563	14.469395	-7.282220	-119.607283
132.65	0.006139	0.044775	10.584085	14.442952	97.604253	-20.136197
133.16	0.006138	0.044808	10.584065	14.704861	91.123498	-20.567083
133.67	0.006132	0.044826	10.581478	14.845569	28.209107	-77.491679
134.18	0.006130	0.044869	10.582614	15.190936	46.466397	-52.492205
134.69	0.006125	0.044894	10.584319	15.387724	81.252751	-14.988140
135.20	0.006136	0.044924	10.583310	15.795559	48.602342	-37.178054
135.71	0.006140	0.044924	10.581596	15.806254	8.833908	-74.878528
136.22	0.006154	0.044934	10.583929	15.879243	60.956728	-23.555566
136.73	0.006150	0.044904	10.585368	15.646957	99.479473	8.090817
137.24	0.006151	0.044880	10.582365	15.450136	34.764500	-57.963038
137.75	0.006139	0.044830	10.580815	15.054197	8.125004	-92.068852
138.26	0.006150	0.044793	10.583361	14.761862	73.569415	-36.060351
138.77	0.006295	0.044729	10.584521	14.254926	111.987962	-10.544283
139.28	0.007624	0.044698	10.581155	14.008018	40.057525	-84.580839
139.79	0.014113	0.044647	10.580413	13.602636	32.272599	-100.908530
140.30	0.035248	0.044628	10.584386	13.456355	127.264372	-13.507513
140.81	0.086389	0.044604	10.584884	13.258421	143.303861	-2.553725
141.32	0.185763	0.044617	10.581671	13.324075	67.701450	-73.229582
141.83	0.339491	0.044630	10.582734	13.296225	92.838544	-49.862728
142.34	0.523754	0.044671	10.586569	13.752991	170.779906	34.515861
142.85	0.688914	0.044696	10.585917	13.985223	150.393323	20.168481
143.36	0.787322	0.044742	10.582393	14.348921	60.755277	-57.351404
143.87	0.799017	0.044750	10.581520	14.417495	39.047179	-76.553097
144.38	0.735375	0.044768	10.585039	14.557978	116.962695	0.855721
144.89	0.624724	0.044759	10.584162	14.483951	98.431889	-18.446438
145.40	0.497812	0.044769	10.581876	14.564074	43.878082	-68.726194
145.91	0.378297	0.044766	10.584481	14.546231	104.364869	-11.419358
146.42	0.278884	0.044798	10.587879	15.043011	171.308391	63.346988
146.93	0.201985	0.044816	10.586094	15.191999	126.703555	24.069778
147.44	0.144937	0.044845	10.580442	15.421653	-8.942654	-100.280967
147.95	0.103377	0.044852	10.580135	15.470554	-17.152888	-107.038962
148.46	0.073201	0.044858	10.583054	15.521913	48.996223	-42.811198
148.97	0.051178	0.044835	10.581050	15.342929	6.906710	-86.890834
149.48	0.035341	0.044821	10.578990	15.226750	-37.934018	-132.215764
149.99	0.023773	0.044797	10.582701	15.038014	51.985663	-50.585293
150.50	0.015744	0.044801	10.585452	15.237887	110.847552	9.952285
151.01	0.010045	0.044784	10.582809	15.121806	52.547884	-48.209034
151.52	0.005883	0.044794	10.580010	15.225623	-14.378512	-109.770801
152.03	0.002684	0.044764	10.583290	14.989726	66.693348	-37.615891
152.54	0.000125	0.044737	10.585100	14.744826	114.060309	2.190042
153.05	-0.002016	0.044690	10.579265	14.353773	-11.504951	-126.174269
153.56	-0.003726	0.044663	10.565747	14.161551	-318.831446	-423.555499
154.07	-0.005073	0.044619	10.553783	13.836630	-587.284050	-686.768603
154.59	-0.005954	0.044601	10.548489	13.697676	-706.189531	-803.244381
155.10	-0.006416	0.044593	10.545761	13.631000	-767.573786	-863.263236
155.61	-0.006371	0.044626	10.543749	13.896075	-820.082825	-907.531212
156.12	-0.005917	0.044673	10.541395	14.266780	-882.892963	-959.305961
156.63	-0.005029	0.044754	10.539309	14.912233	-945.859186	-1005.196544
157.14	-0.003859	0.044831	10.538531	15.524227	-977.895408	-1022.317539
157.65	-0.002456	0.044925	10.538281	16.274460	-1000.937791	-1027.823736
158.16	-0.001004	0.044999	10.538137	17.020077	-1021.427491	-1030.996300
158.67	0.000422	0.045083	10.538181	17.765974	-1037.561266	-1030.007557
159.18	0.001613	0.045138	10.538585	18.586316	-1047.129011	-1021.120732
159.69	0.002493	0.045192	10.537893	19.113013	-1075.232015	-1036.362831
160.20	0.002961	0.045225	10.537369	19.386531	-1093.609265	-1047.886904
160.71	0.002986	0.045275	10.537430	19.878677	-1103.535195	-1046.548478
161.22	0.002563	0.045314	10.537479	20.243646	-1110.792294	-1045.456867
161.73	0.001765	0.045372	10.537932	20.747014	-1111.942569	-1035.500878
162.24	0.000653	0.045409	10.537770	21.053097	-1122.724314	-1039.064497
162.75	-0.000612	0.045466	10.538078	21.585151	-1127.867114	-1032.287095
163.26	-0.001948	0.045479	10.538371	21.754223	-1124.988990	-1025.829074
163.77	-0.003158	0.045499	10.538356	21.712109	-1124.369943	-1026.163310
164.28	-0.004197	0.045476	10.539061	22.001714	-1114.776258	-1010.652536
164.79	-0.004889	0.045460	10.539572	22.558239	-1115.816527	-999.424374
165.30	-0.005248	0.045435	10.538900	22.089725	-1120.526121	-1014.204758
165.81	-0.005166	0.045432	10.538421	21.581750	-1119.873679	-1024.736796
166.32	-0.004749	0.045421	10.538411	20.747928	-1100.919671	-1024.966016
166.83	-0.003975	0.045421	10.538413	20.612327	-1097.742392	-1024.912790
167.34	-0.003012	0.045401	10.538922	20.519650	-1083.877567	-1013.722131
167.85	-0.001879	0.045378	10.539110	20.638746	-1082.282196	-1009.585113
168.36	-0.000783	0.045337	10.538316	20.440209	-1096.024969	-1027.054010
168.87	0.000247	0.045311	10.538613	20.571554	-1092.186762	-1020.508569
169.38	0.001062	0.045270	10.538676	19.566930	-1067.610770	-1019.125511
169.89	0.001636	0.045247	10.538770	19.128131	-1055.353096	-1017.068247
170.40	0.001891	0.045214	10.539400	18.097853	-1017.099040	-1003.200946
170.91	0.001857	0.045209	10.538699	18.238708	-1036.513785	-1018.627789
171.42	0.001526	0.045192	10.538453	18.068325	-1038.269897	-1024.044317
171.93	0.000976	0.045206	10.538427	18.904527	-1058.103831	-1024.602214
172.44	0.000252	0.045204	10.538486	18.213022	-1040.819908	-1023.299465
172.95	-0.000517	0.045228	10.538777	10.128992	-848.014577	-1016.895194
173.46	-0.001298	0.045229	10.538665	-50.936835	555.113431	-1019.362408
173.97	-0.001917	0.045244	10.539077	-183.983615	3627.294715	-1010.309925
174.48	-0.002463	0.045241	10.539403	-277.776665	5793.894297	-1003.140716
174.99	-0.002717	0.045248	10.539602	-314.844562	6651.778121	-998.758941
175.50	-0.002833	0.045193	10.540254	-328.529930	6981.854268	-984.408721
176.01	-0.002717	0.045028	10.541761	-333.928611	7140.876293	-951.264106
176.52	-0.002413	0.044537	10.542255	-336.251050	7205.734742	-940.392742
177.03	-0.002044	0.043509	10.542369	-337.318529	7232.945688	-937.876378
177.54	-0.001470	0.041667	10.544637	-337.817811	7296.747391	-887.979128
178.05	-0.001096	0.038924	10.544635	-338.023154	7301.426755	-888.024502
178.56	-0.000516	0.035288	10.546985	-338.058705	7356.447492	-836.320585
179.07	-0.000162	0.031021	10.552988	-337.977249	7493.007901	-704.266258
179.58	0.000081	0.026406	10.563038	-337.811852	7720.993434	-483.157824
180.09	0.000258	0.021806	10.554397	-337.587492	7516.540057	-673.260314
180.61	0.000314	0.017446	10.600253	-337.347729	8568.594718	335.564817
181.12	0.000148	0.013547	10.601162	-337.127485	8584.485052	355.558942
181.63	-0.000029	0.010181	10.596471	-336.972598	8472.743592	252.369286
182.14	-0.000103	0.007395	10.596886	-336.909588	8480.848078	261.483814
182.65	-0.000562	0.005134	10.607100	-336.978234	8717.994141	486.191286
183.16	-0.000646	0.003373	10.606790	-337.184433	8715.594038	479.373975
183.67	-0.000910	0.002004	10.596594	-337.633318	8490.784132	255.069779
184.18	-0.001026	0.000995	10.603685	-338.357787	8670.998009	411.068420
184.69	-0.001153	0.000236	10.602234	-339.667853	8667.683147	379.139175
185.20	-0.001117	-0.000288	10.603921	-341.800779	8755.690037	416.253388
185.71	-0.001064	-0.000668	10.604120	-345.938455	8855.529288	420.633118
186.22	-0.001088	-0.000902	10.604191	-356.797873	9107.150150	422.198273
186.73	-0.000856	-0.001063	10.606968	-756.893300	18381.261055	483.296875
187.24	-0.000870	-0.001156	10.607453	-312.427698	8160.994902	493.961507
187.75	-0.000678	-0.001225	10.607318	-324.355260	8432.448098	490.989897
188.26	-0.000778	-0.001243	10.606994	-328.445419	8519.140577	483.872257
188.77	-0.000534	-0.001252	10.607139	-330.136924	8561.414824	487.054848
189.28	-0.000760	-0.001217	10.606855	-331.142949	8578.015235	480.799205
189.79	-0.000531	-0.001180	10.605118	-331.366423	8543.110952	442.596661
190.30	-0.000731	-0.001133	10.605090	-331.060817	8535.426571	441.977158
190.81	-0.000573	-0.001092	10.605087	-329.803964	8506.435932	441.921524
191.32	-0.000708	-0.001043	10.605096	-327.219048	8447.135155	442.115266
191.83	-0.000560	-0.001015	10.605096	-320.243029	8286.545792	442.111650
192.34	-0.000596	-0.000974	10.605098	-293.038529	7660.346049	442.148418
192.85	-0.000575	-0.000957	10.605109	-451.037682	11297.700525	442.404088
193.36	-0.000430	-0.000942	10.605099	-368.888098	9406.402798	442.172846
193.87	-0.000560	-0.000960	10.605097	-359.184501	9182.982192	442.127902
194.38	-0.000300	-0.000964	10.607673	-356.285652	9175.675937	498.813013
194.89	-0.000479	-0.001003	10.607441	-356.796224	9182.080903	493.711312
195.40	-0.000260	-0.001017	10.606971	-359.764972	9239.579124	483.369686
195.91	-0.000414	-0.001056	10.607155	-369.576877	9469.683992	487.412502
196.42	-0.000328	-0.001091	10.607785	-421.938886	10689.577028	501.279905
196.93	-0.000426	-0.001152	10.607558	-248.634326	6694.920181	496.276520
197.44	-0.000511	-0.001190	10.607424	-310.585867	8117.940140	493.335322
197.95	-0.000506	-0.001230	10.607140	-321.393716	8360.185374	487.089393
198.46	-0.000711	-0.001223	10.607306	-326.188010	8474.364976	490.730045
198.97	-0.000636	-0.001207	10.607803	-328.350058	8535.601566	501.668476
199.48	-0.000842	-0.001152	10.609893	-329.693021	8614.718050	547.648535
199.99	-0.000748	-0.001115	10.609912	-329.868250	8619.198278	548.074469
200.50	-0.000872	-0.001061	10.609919	-329.496691	8610.806388	548.228311
201.01	-0.000726	-0.001040	10.609916	-327.636232	8567.900691	548.153370
201.52	-0.000753	-0.001003	10.609903	-324.155525	8487.466469	547.858101
202.03	-0.000606	-0.000975	10.606872	-315.076745	8208.570786	481.175102
202.54	-0.000518	-0.000925	10.607137	-282.799004	7471.678007	487.022332
203.05	-0.000461	-0.000886	10.607058	-515.286729	12821.641362	485.281885
203.56	-0.000285	-0.000845	10.607044	-379.222374	9689.152821	484.963640
204.07	-0.000363	-0.000836	10.607293	-365.338006	9375.293252	490.452231
204.58	-0.000145	-0.000827	10.606631	-361.746926	9277.354458	475.882892
205.09	-0.000292	-0.000849	10.606443	-362.698214	9294.923769	471.753424
205.60	-0.000131	-0.000872	10.606943	-368.269100	9434.695280	482.753506
206.12	-0.000279	-0.000919	10.607136	-386.356755	9855.507851	486.989751
206.63	-0.000248	-0.000949	10.607239	-524.176848	13030.457425	489.258301
207.14	-0.000348	-0.000993	10.607375	-246.677228	6645.652817	492.255191
207.65	-0.000435	-0.000997	10.607689	-302.929907	7947.795993	499.147871
208.16	-0.000459	-0.001008	10.607890	-314.740362	8224.325712	503.590292
208.67	-0.000607	-0.000985	10.607383	-320.895919	8354.311565	492.417242
209.18	-0.000566	-0.000968	10.605134	-323.012671	8351.183552	442.952559
209.69	-0.000698	-0.000942	10.605125	-324.177483	8377.777872	442.743428
210.20	-0.000606	-0.000938	10.605126	-323.553309	8363.446125	442.778266
210.71	-0.000684	-0.000903	10.607348	-322.138667	8382.121437	491.656256
211.22	-0.000567	-0.000859	10.607029	-319.888900	8322.984117	484.646526
211.73	-0.000568	-0.000790	10.607282	-314.187688	8197.576383	490.209907
212.24	-0.000483	-0.000726	10.607528	-308.074423	8062.528031	495.625153
212.75	-0.000398	-0.000672	10.607461	-276.795812	7340.943121	494.135148
213.26	-0.000387	-0.000631	10.607570	-150.949069	4446.506064	496.531295
213.77	-0.000262	-0.000610	10.607948	-706.830435	17251.427802	504.852052
214.28	-0.000310	-0.000585	10.608696	-450.901574	11377.286618	521.310407
214.79	-0.000202	-0.000585	10.608778	-431.204602	10925.754929	523.109335
215.30	-0.000268	-0.000561	10.607727	-525.558313	13073.505835	499.987406
215.81	-0.000224	-0.000589	10.607185	639.057458	-13748.043092	488.070962
216.32	-0.000290	-0.000574	10.607297	-68.321089	2538.162179	490.544536
216.83	-0.000289	-0.000599	10.607253	-288.375311	7602.706414	489.563273
217.34	-0.000357	-0.000563	10.607083	-297.850971	7816.911499	485.822647
217.85	-0.000383	-0.000577	10.606511	-309.466387	8071.104175	473.240440
218.36	-0.000407	-0.000541	10.605104	-314.686695	8158.818063	442.280669
218.87	-0.000479	-0.000561	10.605097	-316.670862	8204.347288	442.141755
219.38	-0.000441	-0.000569	10.605099	-315.541026	8178.379752	442.180780
219.89	-0.000491	-0.000610	10.605099	-312.419276	8106.508217	442.171319
220.40	-0.000478	-0.000657	10.606678	-310.940061	8108.875445	476.910876
220.91	-0.000464	-0.000699	10.607492	-300.566861	7888.864529	494.821970
221.42	-0.000454	-0.000729	10.607610	-299.522532	7867.537552	497.410019
221.93	-0.000436	-0.000756	10.607642	-286.028097	7557.652204	498.127287
222.44	-0.000400	-0.000772	10.607471	-291.971520	7690.528554	494.369647
222.95	-0.000361	-0.000772	10.607067	-269.872221	7172.492957	485.481829
223.46	-0.000363	-0.000783	10.607560	-290.126254	7650.088224	496.312822
223.97	-0.000292	-0.000780	10.607124	-268.774241	7148.523901	486.727694
224.48	-0.000309	-0.000788	10.607323	-287.802227	7591.136745	491.111005
224.99	-0.000278	-0.000764	10.607445	-275.353439	7307.389446	493.800577
225.50	-0.000267	-0.000750	10.606712	-288.696040	7597.616134	477.664886
226.01	-0.000274	-0.000714	10.606471	-278.133225	7348.903212	472.360661
226.52	-0.000271	-0.000711	10.605599	-282.161409	7421.528827	453.185439
227.03	-0.000290	-0.000698	10.605132	-281.157748	7387.650492	442.907679
227.54	-0.000312	-0.000707	10.607164	-260.288020	6954.094870	487.606128
228.05	-0.000308	-0.000693	10.607154	-279.933446	7406.101978	487.392569
228.56	-0.000348	-0.000694	10.606740	-227.681459	6193.722437	478.276408
229.07	-0.000334	-0.000665	10.607026	-272.640288	7235.262879	484.575602
229.58	-0.000372	-0.000656	10.607186	-217.369272	5966.633170	488.095672
230.09	-0.000371	-0.000622	10.606473	-266.990736	7092.445069	472.397041
230.60	-0.000382	-0.000608	10.607108	-250.011774	6716.251731	486.378012
231.11	-0.000371	-0.000593	10.607171	-272.582081	7237.266924	487.765403
231.62	-0.000391	-0.000596	10.607229	-283.495763	7489.823338	489.031428
232.14	-0.000347	-0.000583	10.607226	-284.162909	7505.128788	488.981794
232.65	-0.000365	-0.000586	10.606052	-300.149369	7846.034244	463.133452
233.16	-0.000326	-0.000557	10.605857	-297.700998	7785.180336	458.847331
233.67	-0.000319	-0.000545	10.605767	-308.860462	8040.002737	456.877850
234.18	-0.000310	-0.000521	10.605782	-306.406286	7983.840247	457.194357
234.69	-0.000283	-0.000518	10.606168	-311.373151	8107.097224	465.704568
235.20	-0.000283	-0.000518	10.606469	-305.557202	7980.156950	472.325522
235.71	-0.000258	-0.000538	10.607087	-305.552809	7994.293515	485.906920
236.22	-0.000266	-0.000543	10.608297	-296.691971	7818.234001	512.534185
236.73	-0.000250	-0.000575	10.609893	-286.212884	7613.815721	547.644287
237.24	-0.000257	-0.000577	10.609900	-279.341900	7455.801487	547.790685
237.75	-0.000275	-0.000603	10.607190	-237.223872	6423.759646	488.172333
238.26	-0.000268	-0.000612	10.606746	-258.063050	6893.229547	478.403546
238.77	-0.000310	-0.000635	10.607101	-126.099722	3863.675250	486.222096
239.28	-0.000294	-0.000643	10.606295	-233.049156	6307.029122	468.493280
239.79	-0.000324	-0.000680	10.609847	-87.705935	3043.190103	546.629766
240.30	-0.000315	-0.000691	10.609881	-219.463200	6076.978674	547.375136
240.81	-0.000338	-0.000709	10.609900	-200.840730	5648.737283	547.796287
241.32	-0.000315	-0.000693	10.609906	-243.234663	6624.782426	547.940618
241.83	-0.000335	-0.000697	10.609914	-262.245838	7062.596547	548.115561
242.34	-0.000301	-0.000685	10.609889	-267.594807	7185.135249	547.550136
242.85	-0.000316	-0.000679	10.603078	-285.859101	7448.497501	397.714981
243.36	-0.000290	-0.000680	10.602650	-281.747951	7343.980494	388.290634
243.87	-0.000283	-0.000682	10.602702	-292.686272	7596.993513	389.451175
244.38	-0.000282	-0.000675	10.602300	-286.037269	7434.658114	380.601199
244.89	-0.000262	-0.000683	10.602614	-291.673587	7571.645361	387.508544
245.40	-0.000268	-0.000678	10.604261	-282.079208	7388.779172	423.750406
245.91	-0.000254	-0.000678	10.602907	-282.225696	7360.904388	393.943831
246.42	-0.000250	-0.000668	10.602635	-272.896564	7139.887447	387.969029
246.93	-0.000250	-0.000673	10.602716	-257.987650	6798.565275	389.758498
247.44	-0.000244	-0.000666	10.602123	-256.558350	6751.972927	376.699198
247.95	-0.000259	-0.000689	10.602707	-211.811348	5735.388589	389.554336
248.46	-0.000249	-0.000681	10.603121	-233.143614	6236.008476	398.672182
248.97	-0.000281	-0.000692	10.603070	-173.050060	4851.494850	397.546011
249.48	-0.000264	-0.000684	10.604876	-215.804809	5877.345838	437.277398
249.99	-0.000294	-0.000674	10.604899	-193.493656	5364.266051	437.768979
250.50	-0.000276	-0.000645	10.604896	-231.720299	6244.161729	437.703555
251.01	-0.000288	-0.000620	10.604896	-235.527456	6331.804657	437.706888
251.52	-0.000273	-0.000588	10.604909	-260.128372	6898.406680	437.990529
252.03	-0.000284	-0.000574	10.604898	-267.268763	7062.538036	437.763483
252.54	-0.000254	-0.000561	10.602844	-273.201120	7151.713464	392.562320
253.05	-0.000265	-0.000576	10.602635	-281.702400	7342.589587	387.964088
253.56	-0.000250	-0.000575	10.602358	-276.772885	7222.723183	381.868001
254.07	-0.000241	-0.000585	10.602612	-282.278075	7355.307143	387.454414
254.58	-0.000244	-0.000572	10.602507	-281.970967	7345.833909	385.161499
255.09	-0.000245	-0.000564	10.602738	-281.050185	7329.967704	390.245719
255.60	-0.000236	-0.000549	10.602752	-281.398015	7338.296384	390.552639
256.11	-0.000244	-0.000544	10.601111	-279.568126	7258.314180	354.438946
256.62	-0.000237	-0.000529	10.602128	-275.833836	7195.807909	376.813563
257.13	-0.000240	-0.000534	10.603196	-268.146553	7043.481431	400.310292
257.65	-0.000243	-0.000546	10.602814	-267.059873	7009.666045	391.915560
258.16	-0.000254	-0.000573	10.602864	-244.766833	6497.626605	393.001780
258.67	-0.000243	-0.000575	10.603612	-249.549901	6624.996464	409.471213
259.18	-0.000259	-0.000579	10.603578	-238.684033	6374.069874	408.709980
259.69	-0.000239	-0.000537	10.603358	-242.171626	6449.285260	403.875755
260.20	-0.000259	-0.000499	10.603512	-251.362931	6664.421817	407.267715
260.71	-0.000241	-0.000448	10.602637	-259.721268	6836.640072	388.010458
261.22	-0.000256	-0.000419	10.603314	-269.836715	7085.114810	402.911041
261.73	-0.000239	-0.000392	10.604833	-279.080256	7332.933306	436.331433
262.24	-0.000254	-0.000398	10.604849	-277.355283	7293.593590	436.683023
262.75	-0.000238	-0.000405	10.603200	-283.627716	7399.957755	400.410683
263.26	-0.000245	-0.000437	10.602795	-276.614300	7229.168979	391.498989
263.77	-0.000236	-0.000478	10.604313	-277.735307	7289.977062	424.888414
264.28	-0.000235	-0.000539	10.604875	-269.622168	7116.170222	437.246104
264.79	-0.000226	-0.000580	10.604875	-266.271319	7039.042073	437.253017
265.30	-0.000229	-0.000625	10.604897	-258.118306	6851.861176	437.728709
265.81	-0.000225	-0.000650	10.604888	-259.316997	6879.261884	437.544836
266.32	-0.000223	-0.000669	10.601432	-246.353024	6501.110756	361.494856
266.83	-0.000225	-0.000658	10.601022	-252.353694	6629.801982	352.487942
267.34	-0.000233	-0.000653	10.603541	-242.576107	6462.806892	407.892295
267.85	-0.000226	-0.000626	10.603560	-244.521055	6508.038274	408.330468
268.36	-0.000242	-0.000612	10.603762	-244.051513	6501.883739	412.770088
268.87	-0.000230	-0.000572	10.604868	-241.668397	6472.536090	437.105038
269.38	-0.000242	-0.000540	10.604876	-247.307532	6602.517290	437.267427
269.89	-0.000222	-0.000486	10.604874	-248.685572	6634.198911	437.228902
270.40	-0.000237	-0.000449	10.603849	-258.251567	6830.764881	414.678630
270.91	-0.000219	-0.000397	10.604023	-262.813187	6939.791108	418.512649
271.42	-0.000220	-0.000352	10.604474	-273.457071	7195.204603	428.428417
271.93	-0.000206	-0.000303	10.604756	-286.683345	7506.183674	434.642892
272.44	-0.000222	-0.000274	10.604873	-290.533686	7597.500868	437.202849
272.95	-0.000200	-0.000262	10.604899	-299.225805	7798.186218	437.771133
273.46	-0.000215	-0.000278	10.604909	-294.153638	7681.666394	437.999798
273.97	-0.000210	-0.000297	10.604919	-295.716931	7717.886835	438.223002
274.48	-0.000205	-0.000340	10.604929	-287.763297	7535.028081	438.443511
274.99	-0.000209	-0.000371	10.604934	-286.986968	7517.255968	438.537675
275.50	-0.000208	-0.000403	10.604933	-277.884298	7307.692820	438.515925
276.01	-0.000202	-0.000403	10.604931	-281.606526	7393.345615	438.485774
276.52	-0.000207	-0.000400	10.596527	-275.458958	7058.006063	253.595464
277.03	-0.000198	-0.000379	10.597522	-281.792381	7226.746535	275.484941
277.54	-0.000205	-0.000367	10.597909	-278.605968	7162.327040	284.003928
278.05	-0.000200	-0.000353	10.598206	-279.566364	7191.276829	290.530370
278.56	-0.000209	-0.000357	10.596641	-278.721699	7135.743648	256.104607
279.07	-0.000198	-0.000358	10.596818	-273.828334	7027.175939	259.992619
279.58	-0.000210	-0.000390	10.597855	-269.317687	6947.264164	282.811718
280.09	-0.000196	-0.000402	10.598092	-263.045557	6808.338709	288.017022
280.60	-0.000208	-0.000439	10.597404	-254.642777	6599.057512	272.895642
281.11	-0.000190	-0.000448	10.597061	-252.972427	6552.677628	265.332141
281.62	-0.000198	-0.000476	10.597142	-245.472975	6381.927335	267.129785
282.13	-0.000191	-0.000489	10.596613	-248.343756	6435.811345	255.491774
282.64	-0.000203	-0.000516	10.595133	-239.146779	6189.953315	222.919001
283.15	-0.000187	-0.000517	10.597619	-250.496938	6508.575051	277.620662
283.67	-0.000190	-0.000524	10.597831	-243.372920	6349.462517	282.275632
284.18	-0.000185	-0.000499	10.597128	-257.399671	6656.147211	266.816358
284.69	-0.000183	-0.000485	10.599368	-254.596902	6643.285280	316.092093
285.20	-0.000173	-0.000445	10.599628	-265.093721	6890.913399	321.810692
285.71	-0.000181	-0.000420	10.595106	-265.508823	6796.175519	222.324700
286.22	-0.000176	-0.000373	10.595099	-276.359710	7045.796223	222.169208
286.73	-0.000184	-0.000357	10.595092	-271.966220	6944.514061	222.030386
287.24	-0.000179	-0.000329	10.595097	-279.732718	7123.402640	222.131943
287.75	-0.000182	-0.000321	10.595088	-277.839558	7079.608353	221.927427
288.26	-0.000178	-0.000301	10.595087	-279.423558	7116.051667	221.908507
288.77	-0.000180	-0.000285	10.595092	-283.527924	7210.647361	222.017821
289.28	-0.000171	-0.000250	10.595086	-290.504241	7371.101182	221.885600
289.79	-0.000185	-0.000236	10.595089	-291.744323	7399.733238	221.967439
290.30	-0.000179	-0.000213	10.595090	-297.827092	7539.763666	221.974270
290.81	-0.000194	-0.000214	10.595085	-296.359712	7505.883752	221.877619
291.32	-0.000182	-0.000235	10.595086	-292.712942	7421.950813	221.891406
291.83	-0.000183	-0.000273	10.603196	-285.501806	7442.989069	400.306136
292.34	-0.000176	-0.000319	10.602020	-278.988253	7265.927927	374.434928
292.85	-0.000183	-0.000381	10.603982	-263.677338	6958.721158	417.594592
293.36	-0.000175	-0.000429	10.607156	-259.414156	6933.801215	487.436711
293.87	-0.000184	-0.000489	10.607948	-240.822189	6524.089912	504.863994
294.38	-0.000175	-0.000500	10.604908	-246.330818	6580.772611	437.972311
294.89	-0.000187	-0.000512	10.604529	-236.816785	6353.031248	429.643212
295.40	-0.000172	-0.000493	10.607352	-246.343635	6637.428124	491.734856
295.91	-0.000183	-0.000475	10.607835	-243.393898	6580.672107	502.367006
296.42	-0.000176	-0.000441	10.606540	-255.922695	6839.215164	473.878093
296.93	-0.000180	-0.000418	10.606331	-254.959844	6812.222445	469.272419
297.44	-0.000170	-0.000390	10.607019	-262.661224	7005.374560	484.409930
297.95	-0.000177	-0.000391	10.606682	-259.441516	6923.490453	477.000444
298.46	-0.000169	-0.000390	10.605439	-259.541979	6897.129690	449.648743
298.97	-0.000173	-0.000415	10.605473	-250.787535	6696.402296	450.408927
299.48	-0.000163	-0.000432	10.596366	-248.188373	6426.541099	250.060835
299.99	-0.000171	-0.000494	10.595239	-233.407589	6060.295888	225.262522
300.50	-0.000164	-0.000542	10.595054	-221.781463	5788.387862	221.181176
301.01	-0.000170	-0.000600	10.595051	-209.930878	5515.533954	221.126314
301.52	-0.000158	-0.000621	10.595053	-210.439280	5527.271467	221.159020
302.03	-0.000162	-0.000631	10.595053	-204.011952	5379.327623	221.169546
302.54	-0.000150	-0.000588	10.595052	-221.645285	5785.220250	221.149837
303.05	-0.000165	-0.000551	10.595053	-223.446272	5826.687198	221.158279
303.56	-0.000158	-0.000491	10.595054	-241.474041	6241.716363	221.192708
304.07	-0.000162	-0.000443	10.595052	-243.116823	6279.485969	221.148182
304.58	-0.000160	-0.000410	10.595055	-256.069499	6577.714966	221.208102
305.09	-0.000166	-0.000388	10.595062	-254.036766	6531.092137	221.370265
305.60	-0.000157	-0.000370	10.595062	-258.274622	6628.641501	221.365843
306.11	-0.000163	-0.000369	10.595057	-252.900885	6504.825743	221.256948
306.62	-0.000158	-0.000360	10.595053	-261.047349	6692.255671	221.162608
307.13	-0.000166	-0.000366	10.595052	-251.224152	6466.112214	221.146569
307.64	-0.000162	-0.000364	10.595051	-257.674467	6614.579220	221.130317
308.15	-0.000168	-0.000381	10.595055	-251.713241	6477.432993	221.205805
308.66	-0.000153	-0.000392	10.595073	-247.282893	6375.866039	221.604690
309.18	-0.000165	-0.000437	10.595057	-238.541287	6174.280644	221.264498
309.69	-0.000151	-0.000461	10.595055	-232.330325	6031.258122	221.218429
310.20	-0.000156	-0.000505	10.595057	-218.231385	5706.738099	221.249670
310.71	-0.000148	-0.000530	10.595054	-215.272474	5638.561147	221.188788
311.22	-0.000154	-0.000546	10.595053	-205.918057	5423.204469	221.168551
311.73	-0.000141	-0.000532	10.595056	-213.805777	5604.845258	221.233602
312.24	-0.000149	-0.000520	10.595068	-213.411005	5596.025416	221.488923
312.75	-0.000140	-0.000499	10.595060	-223.728415	5833.347118	221.315756
313.26	-0.000148	-0.000489	10.595055	-219.996059	5747.320507	221.211722
313.77	-0.000145	-0.000473	10.595053	-230.540323	5989.993828	221.162095
314.28	-0.000150	-0.000478	10.595053	-221.741942	5787.459338	221.163257
314.79	-0.000145	-0.000459	10.595055	-232.995617	6046.559120	221.205274
315.30	-0.000151	-0.000441	10.595058	-226.869916	5905.614489	221.269103
315.81	-0.000139	-0.000408	10.595055	-240.095154	6210.002661	221.219230
316.32	-0.000154	-0.000373	10.595076	-245.085737	6325.365760	221.678613
316.83	-0.000138	-0.000340	10.595091	-258.704651	6639.198789	221.993680
317.34	-0.000151	-0.000334	10.595101	-253.408964	6517.525637	222.214746
317.85	-0.000144	-0.000322	10.595108	-257.788198	6618.493913	222.367184
318.36	-0.000150	-0.000350	10.595100	-248.205708	6397.733973	222.200910
318.87	-0.000141	-0.000370	10.595097	-241.639817	6246.511563	222.126669
319.38	-0.000149	-0.000408	10.595095	-225.311528	5870.604015	222.092398
319.89	-0.000136	-0.000432	10.595085	-223.696126	5833.193921	221.878626
320.40	-0.000143	-0.000451	10.595085	-215.092715	5635.146732	221.879003
320.91	-0.000135	-0.000449	10.595086	-221.448452	5781.476366	221.900702
321.42	-0.000145	-0.000449	10.595102	-217.773853	5697.255205	222.250631
321.93	-0.000128	-0.000429	10.595107	-225.601092	5877.541177	222.351383
322.44	-0.000140	-0.000406	10.595127	-228.975285	5955.679842	222.795810
322.95	-0.000131	-0.000362	10.595111	-242.202184	6259.780626	222.435307
323.46	-0.000134	-0.000326	10.602281	-247.583503	6549.016506	380.172830
323.97	-0.000134	-0.000294	10.602391	-262.912585	6904.422623	382.591839
324.48	-0.000146	-0.000304	10.601052	-257.482370	6748.538695	353.133099
324.99	-0.000139	-0.000324	10.603591	-258.785062	6837.090966	408.998313
325.50	-0.000148	-0.000378	10.607114	-239.029998	6463.586082	486.503040
326.01	-0.000140	-0.000414	10.607028	-229.959912	6252.826531	484.624539
326.52	-0.000139	-0.000447	10.606968	-216.471854	5940.944360	483.296995
327.03	-0.000131	-0.000437	10.605133	-223.995027	6071.801862	442.924528
327.54	-0.000139	-0.000424	10.605124	-221.862958	6022.524808	442.736075
328.05	-0.000132	-0.000397	10.605125	-234.932960	6323.401811	442.745647
328.56	-0.000139	-0.000379	10.607274	-234.433224	6361.455765	490.018996
329.07	-0.000138	-0.000347	10.609893	-249.698586	6773.275227	547.650179
329.58	-0.000149	-0.000331	10.609884	-246.355500	6696.101247	547.442903
330.09	-0.000140	-0.000296	10.606812	-261.336502	6970.123289	479.872558
330.60	-0.000145	-0.000292	10.606756	-259.376756	6923.708966	478.630916
331.11	-0.000129	-0.000276	10.606195	-265.314595	7047.467882	466.298731
331.62	-0.000137	-0.000283	10.607356	-258.992257	6928.693463	491.828710
332.13	-0.000128	-0.000281	10.607612	-262.922973	7025.089799	497.468759
332.64	-0.000133	-0.000281	10.608298	-259.086568	6952.604592	512.566709
333.15	-0.000125	-0.000279	10.607131	-261.685557	6985.512006	486.887183
333.66	-0.000134	-0.000293	10.606177	-252.518509	6752.489188	465.900776
334.17	-0.000125	-0.000308	10.607047	-252.684569	6776.376255	485.040336
334.69	-0.000137	-0.000359	10.607586	-233.438594	6345.761057	496.888387
335.20	-0.000121	-0.000397	10.607320	-226.688843	6184.257882	491.044550
335.71	-0.000133	-0.000455	10.607061	-200.109585	5566.444147	485.351348
336.22	-0.000123	-0.000484	10.606951	-194.444846	5433.487473	482.912865
336.73	-0.000128	-0.000507	10.607191	-175.349522	4999.471983	488.209263
337.24	-0.000122	-0.000500	10.607503	-192.356282	5398.144158	495.060573
