Length [m]	OTDR [V]	Brillouin intensity [V]	Fitted Frequency [GHz]	Temperature [”]	Compensated Strain [レュ]	Uncompensated Strain [レュ]
0.51	0.007252	0.043130	10.507259	-150.755041	2176.897640	-1710.312150
1.02	0.007358	0.047002	10.480881	-127.341357	1029.581350	-2290.611993
1.53	0.007305	0.050254	10.459081	-92.293426	-279.988086	-2770.214536
2.04	0.007352	0.052979	10.446734	-54.838543	-1426.950919	-3041.852603
2.55	0.007304	0.055218	10.440072	-29.489658	-2164.128455	-3188.424772
3.06	0.007255	0.057101	10.436894	-16.996111	-2525.001536	-3258.323026
3.57	0.007223	0.058669	10.434712	-22.539647	-2447.718002	-3306.329986
4.08	0.007219	0.060005	10.433775	-25.096032	-2410.479088	-3326.942149
4.59	0.007194	0.061115	10.434224	-14.999419	-2632.552501	-3317.071932
5.10	0.007230	0.062027	10.434156	7.153188	-3144.071841	-3318.573277
5.61	0.007239	0.062718	10.434839	25.892950	-3559.703516	-3303.548099
6.12	0.007251	0.063213	10.434803	34.525510	-3759.238294	-3304.326691
6.63	0.007217	0.063531	10.433771	25.451531	-3574.161377	-3327.032453
7.14	0.007208	0.063762	10.433810	11.191238	-3245.002117	-3326.181392
7.65	0.007179	0.063913	10.434794	0.062332	-2966.112576	-3304.522092
8.16	0.007188	0.064048	10.434368	6.005434	-3112.759372	-3313.907196
8.67	0.007211	0.064138	10.434082	21.201914	-3469.172006	-3320.198076
9.18	0.007271	0.064198	10.434240	41.869813	-3941.297756	-3316.723737
9.69	0.007267	0.064147	10.433474	53.040006	-4216.098993	-3333.576583
10.20	0.007268	0.064030	10.433593	54.076335	-4237.202081	-3330.950628
10.71	0.007217	0.063865	10.433952	43.963667	-3996.144916	-3323.064686
11.22	0.007184	0.063731	10.434259	37.718760	-3845.310020	-3316.311736
11.73	0.007149	0.063638	10.434147	38.488555	-3865.604557	-3318.767201
12.24	0.007166	0.063632	10.432453	49.011993	-4146.916847	-3356.032801
12.75	0.007192	0.063665	10.431699	56.021221	-4325.656145	-3372.620505
13.26	0.007239	0.063718	10.432002	58.590265	-4377.798019	-3365.946374
13.77	0.007230	0.063735	10.432787	48.976967	-4138.399170	-3348.676849
14.28	0.007218	0.063737	10.433773	39.100709	-3888.329091	-3327.002217
14.79	0.007170	0.063733	10.434256	29.584261	-3658.111097	-3316.363697
15.30	0.007149	0.063776	10.433826	27.099982	-3610.838927	-3325.821730
15.81	0.007119	0.063835	10.432795	26.161468	-3613.010242	-3348.501398
16.32	0.007131	0.063925	10.433519	28.666678	-3653.987557	-3332.579026
16.83	0.007084	0.063970	10.434428	26.112868	-3574.231361	-3312.577194
17.34	0.007026	0.063949	10.434412	25.620370	-3563.272665	-3312.938206
17.85	0.006886	0.063867	10.434779	25.040507	-3541.468611	-3304.872161
18.36	0.006764	0.063793	10.434621	28.278925	-3619.641955	-3308.331093
18.87	0.006626	0.063732	10.434173	30.392661	-3678.645499	-3318.200248
19.38	0.006555	0.063731	10.434648	34.685305	-3766.508327	-3307.752741
19.89	0.006498	0.063751	10.435002	37.776709	-3829.489314	-3299.947813
20.40	0.006499	0.063777	10.434981	39.029726	-3858.818463	-3300.410583
20.91	0.006464	0.063745	10.435743	40.686968	-3879.396478	-3283.649381
21.42	0.006431	0.063674	10.436845	47.332335	-4006.952027	-3259.402533
21.93	0.006373	0.063541	10.436928	44.849857	-3947.896949	-3257.581243
22.44	0.006342	0.063427	10.436904	48.869448	-4040.986055	-3258.114959
22.95	0.006298	0.063336	10.437719	43.473225	-3897.976236	-3240.190496
23.46	0.006317	0.063317	10.437683	38.214240	-3777.743881	-3240.980021
23.97	0.006337	0.063339	10.438074	37.347980	-3748.776825	-3232.370030
24.48	0.006371	0.063415	10.438765	33.666333	-3648.095276	-3217.173080
24.99	0.006373	0.063471	10.438616	32.954414	-3635.137344	-3220.445182
25.50	0.006381	0.063538	10.437679	36.703420	-3743.039907	-3241.051181
26.02	0.006342	0.063585	10.437533	35.448412	-3717.519654	-3244.265447
26.53	0.006350	0.063646	10.437240	35.610084	-3727.996429	-3250.709206
27.04	0.006328	0.063697	10.436674	34.867160	-3723.964011	-3263.176222
27.55	0.006359	0.063759	10.436637	32.949094	-3680.650104	-3263.976843
28.06	0.006371	0.063786	10.437295	30.403288	-3606.875682	-3249.505297
28.57	0.006392	0.063783	10.437773	34.790363	-3696.850316	-3238.998685
29.08	0.006369	0.063711	10.437076	34.774818	-3712.557448	-3254.323142
29.59	0.006362	0.063611	10.437287	40.864892	-3847.883837	-3249.682353
30.10	0.006316	0.063474	10.437730	38.544496	-3784.262809	-3239.946516
30.61	0.006315	0.063372	10.437815	36.669980	-3739.150251	-3238.075107
31.12	0.006310	0.063294	10.437075	37.420878	-3773.502770	-3254.355502
31.63	0.006337	0.063269	10.437492	35.684657	-3723.914741	-3245.178152
32.14	0.006347	0.063260	10.438120	33.436730	-3657.690091	-3231.367388
32.65	0.006369	0.063268	10.438015	38.766695	-3782.802297	-3233.674146
33.16	0.006343	0.063282	10.439293	34.499618	-3655.099553	-3205.556767
33.67	0.006352	0.063297	10.440731	38.374602	-3711.122203	-3173.907953
34.18	0.006321	0.063290	10.441062	36.156747	-3652.438099	-3166.629792
34.69	0.006336	0.063324	10.440351	37.281946	-3694.733956	-3182.268285
35.20	0.006345	0.063331	10.439710	31.956110	-3586.919353	-3196.371115
35.71	0.006367	0.063381	10.440449	34.916141	-3638.030435	-3180.128187
36.22	0.006374	0.063374	10.441039	32.487289	-3568.511907	-3167.148217
36.73	0.006393	0.063383	10.440704	34.965431	-3633.266778	-3174.501771
37.24	0.006362	0.063321	10.441435	37.124770	-3666.118940	-3158.423620
37.75	0.006355	0.063289	10.442736	38.600866	-3670.091010	-3129.799641
38.26	0.006333	0.063226	10.442755	38.450240	-3666.191981	-3129.387871
38.77	0.006350	0.063226	10.442554	39.736686	-3700.447405	-3133.815786
39.28	0.006348	0.063230	10.441745	37.908866	-3677.014601	-3151.599433
39.79	0.006371	0.063273	10.440933	37.697219	-3690.888216	-3169.481013
40.30	0.006363	0.063289	10.441294	37.140638	-3669.745362	-3161.534460
40.81	0.006373	0.063319	10.441784	39.113888	-3703.862735	-3150.749446
41.32	0.006338	0.063317	10.442382	39.550484	-3700.115653	-3137.588053
41.83	0.006336	0.063320	10.443339	41.116097	-3714.100773	-3116.549923
42.34	0.006320	0.063303	10.444541	40.511273	-3672.452893	-3090.102854
42.85	0.006346	0.063293	10.445109	39.254288	-3630.412743	-3077.602137
43.36	0.006345	0.063267	10.444560	35.989733	-3567.915308	-3089.670461
43.87	0.006361	0.063235	10.443455	36.003405	-3593.728744	-3113.993814
44.38	0.006353	0.063189	10.443021	35.661816	-3595.867826	-3123.535117
44.89	0.006355	0.063136	10.444452	37.978717	-3616.204546	-3092.058579
45.40	0.006330	0.063070	10.445335	39.328468	-3626.905590	-3072.627766
45.91	0.006342	0.063034	10.445618	40.987470	-3658.569806	-3066.403107
46.42	0.006331	0.063002	10.445990	39.876609	-3624.414012	-3058.214648
46.93	0.006355	0.063007	10.445085	38.559574	-3614.983055	-3078.138613
47.44	0.006347	0.063018	10.444303	36.145737	-3577.434779	-3095.325519
47.95	0.006363	0.063029	10.445123	36.668973	-3570.583426	-3077.300462
48.46	0.006340	0.063026	10.445752	37.308481	-3570.791305	-3063.456069
48.97	0.006342	0.063002	10.446901	39.687495	-3599.053739	-3038.176024
49.48	0.006315	0.062952	10.452676	40.493570	-3484.420842	-2911.126856
49.99	0.006318	0.062887	10.472046	41.682859	-3065.055598	-2484.977135
50.50	0.006309	0.062747	10.505736	40.180425	-2253.489102	-1743.811022
51.01	0.006331	0.062517	10.536259	41.290404	-1575.093902	-1072.312842
51.53	0.006323	0.062105	10.557705	41.930432	-1095.198249	-600.483839
52.04	0.006343	0.061514	10.562669	45.983888	-1074.039114	-491.291938
52.55	0.006330	0.060749	10.564926	48.016495	-1068.766266	-441.629020
53.06	0.006338	0.059879	10.566940	50.429723	-1077.865140	-397.317438
53.57	0.006322	0.058936	10.568453	48.449340	-997.383928	-364.032379
54.08	0.006337	0.058009	10.569141	45.673070	-917.615157	-348.903466
54.59	0.006323	0.057120	10.569529	39.771279	-772.803557	-340.361819
55.10	0.006339	0.056322	10.570036	36.502235	-685.852911	-329.202682
55.61	0.006330	0.055606	10.570469	33.614954	-609.416303	-319.689963
56.12	0.006337	0.055014	10.570324	33.031528	-599.320944	-322.871159
56.63	0.006324	0.054523	10.570845	31.519763	-552.516965	-311.420805
57.14	0.006325	0.054149	10.570596	31.553706	-559.029717	-316.888006
57.65	0.006314	0.053891	10.570719	28.654316	-489.455638	-314.187402
58.16	0.006322	0.053728	10.571142	26.404091	-427.892835	-304.874046
58.67	0.006309	0.053624	10.570900	23.749489	-372.356881	-310.189279
59.18	0.006332	0.053565	10.570658	23.256331	-366.588496	-315.515838
59.69	0.006314	0.053516	10.570239	22.446733	-357.620555	-324.738869
60.20	0.006329	0.053482	10.569758	24.426690	-414.286377	-335.315665
60.71	0.006312	0.053435	10.570061	23.666397	-389.813888	-328.666188
61.22	0.006321	0.053419	10.570650	24.823110	-402.858112	-315.709367
61.73	0.006308	0.053420	10.571180	23.035201	-349.463096	-304.035514
62.24	0.006320	0.053435	10.570969	22.477933	-341.510970	-308.686766
62.75	0.006308	0.053430	10.570816	21.236640	-316.448997	-312.037035
63.26	0.006324	0.053419	10.571070	22.486968	-339.388989	-306.464183
63.77	0.006310	0.053375	10.570965	22.603186	-344.480063	-308.768610
64.28	0.006345	0.053335	10.571320	24.923286	-389.710804	-300.968371
64.79	0.006429	0.053288	10.571917	24.643393	-369.489408	-287.825136
65.30	0.006730	0.053265	10.571591	24.808353	-380.804402	-294.996281
65.81	0.007327	0.053242	10.571289	23.085620	-348.111013	-301.638628
66.32	0.008402	0.053248	10.571508	22.565535	-331.099295	-296.831393
66.83	0.009828	0.053256	10.572064	21.406251	-291.573078	-284.583356
67.34	0.011341	0.053274	10.572230	22.967747	-323.700309	-280.941461
67.85	0.012457	0.053274	10.571636	22.469224	-325.933249	-294.018319
68.36	0.012938	0.053280	10.570798	24.298331	-387.346251	-312.435934
68.87	0.012712	0.053258	10.570941	23.261071	-360.175230	-309.294088
69.38	0.011994	0.053244	10.571362	22.665949	-336.775401	-300.040905
69.89	0.011015	0.053223	10.571405	21.272522	-303.703754	-299.091351
70.40	0.010034	0.053234	10.571330	20.973314	-298.550897	-300.746196
70.91	0.009159	0.053243	10.571261	19.959535	-276.796761	-302.255954
71.42	0.008493	0.053275	10.571707	21.873194	-310.563156	-292.444672
71.93	0.007977	0.053307	10.571732	22.486072	-324.089625	-291.889719
72.44	0.007630	0.053329	10.572006	23.905092	-350.435827	-285.861850
72.95	0.007357	0.053342	10.571909	23.035188	-332.650229	-287.997922
73.46	0.007179	0.053357	10.572547	23.272131	-323.395851	-273.967200
73.97	0.007028	0.053352	10.573051	21.900053	-280.183833	-262.875910
74.48	0.006940	0.053347	10.572325	22.353230	-307.351829	-278.840467
74.99	0.006841	0.053323	10.571726	21.610101	-304.071480	-292.029382
75.50	0.006797	0.053301	10.571683	23.446379	-347.328837	-292.970770
76.01	0.006735	0.053264	10.572045	23.299781	-335.612478	-285.013557
76.52	0.006715	0.053239	10.572067	24.042446	-352.192600	-284.521540
77.03	0.006678	0.053200	10.571988	22.326470	-314.519445	-286.265304
77.55	0.006669	0.053166	10.571777	22.134535	-314.965498	-290.905432
78.06	0.006647	0.053124	10.572082	20.934936	-280.323085	-284.201336
78.57	0.006647	0.053101	10.572283	21.225924	-282.376499	-279.770415
79.08	0.006629	0.053084	10.572588	21.005255	-270.264745	-273.062514
79.59	0.006628	0.053112	10.572701	22.588651	-304.100997	-270.569973
80.10	0.006615	0.053148	10.572842	22.189425	-291.673246	-267.481511
80.61	0.006627	0.053203	10.572484	23.153387	-322.106533	-275.344755
81.12	0.006617	0.053251	10.572239	22.127208	-304.134498	-280.734574
81.63	0.006640	0.053302	10.572126	22.922849	-325.057175	-283.221672
82.14	0.006643	0.053322	10.572122	22.152672	-307.424429	-283.313694
82.65	0.006665	0.053347	10.572809	23.659276	-326.271452	-268.209090
83.16	0.006657	0.053345	10.573075	23.522999	-316.994827	-262.352538
83.67	0.006674	0.053342	10.572530	25.063002	-365.005723	-274.334102
84.18	0.006657	0.053320	10.572694	24.721758	-353.363981	-270.722207
84.69	0.006663	0.053288	10.573333	24.992347	-344.869958	-256.677971
85.20	0.006650	0.053231	10.573506	23.372917	-303.608485	-252.878810
85.71	0.006664	0.053182	10.572938	23.509101	-319.836650	-265.368537
86.22	0.006661	0.053126	10.573483	21.962363	-271.648508	-253.365776
86.73	0.006649	0.053048	10.573477	22.153706	-276.201447	-253.507229
87.24	0.006603	0.052965	10.572988	21.143163	-264.215817	-264.264164
87.75	0.006551	0.052873	10.572803	21.468096	-275.973173	-268.344483
88.26	0.006457	0.052780	10.572942	19.962249	-238.091807	-265.275511
88.77	0.006400	0.052743	10.573427	20.525936	-239.886984	-254.610174
89.28	0.006425	0.052811	10.572766	20.060120	-244.402463	-269.146177
89.79	0.006457	0.053011	10.572787	21.944146	-287.300827	-268.696621
90.30	0.006482	0.053223	10.573608	22.943084	-291.358140	-250.631674
90.81	0.006510	0.053346	10.573786	24.571138	-324.732700	-246.718088
91.32	0.006526	0.053325	10.573608	24.365087	-324.076255	-250.616486
91.83	0.006557	0.053289	10.573296	24.748289	-340.108866	-257.495515
92.34	0.006558	0.053262	10.573110	24.110641	-329.714368	-261.581988
92.85	0.006559	0.053248	10.573472	24.749721	-336.078194	-253.619186
93.36	0.006559	0.053249	10.573962	23.439633	-294.622693	-242.842243
93.87	0.006563	0.053262	10.573673	24.561403	-327.114081	-249.203465
94.38	0.006575	0.053268	10.573327	23.761063	-316.659794	-256.805392
94.89	0.006585	0.053238	10.572833	24.523357	-345.594186	-267.667170
95.40	0.006591	0.053165	10.572668	23.495019	-325.739378	-271.308390
95.91	0.006594	0.053092	10.572734	23.721785	-329.430716	-269.850129
96.42	0.006594	0.053034	10.573014	22.641358	-298.100994	-263.689182
96.93	0.006594	0.053026	10.573565	23.288870	-300.297394	-251.565897
97.44	0.006594	0.053029	10.573431	22.394322	-282.789960	-254.508475
97.95	0.006594	0.053037	10.572175	23.256454	-331.615142	-282.151858
98.46	0.006594	0.053023	10.570056	21.145885	-331.891646	-328.760709
98.97	0.006594	0.053013	10.567149	16.407926	-289.879415	-392.723809
99.48	0.006594	0.053036	10.562775	0.682740	-28.777962	-488.960384
99.99	0.006594	0.053134	10.557057	-26.349323	461.626181	-614.746811
100.50	0.006594	0.053280	10.549497	-65.531100	1189.212159	-781.074573
101.01	0.006591	0.053433	10.540509	-104.443778	1877.679803	-978.808517
101.52	0.006591	0.053558	10.532436	-135.164454	2398.684295	-1156.401748
102.03	0.006591	0.053651	10.527981	-153.048225	2707.611966	-1254.416080
102.54	0.006591	0.053707	10.526448	-159.738453	2826.271012	-1288.134454
103.06	0.006591	0.053801	10.525910	-156.256930	2733.699894	-1299.989260
103.57	0.006591	0.053918	10.525666	-144.927518	2467.283244	-1305.347778
104.08	0.006591	0.054084	10.525304	-127.095870	2048.450940	-1313.316577
104.59	0.006591	0.054240	10.526253	-105.784034	1579.756351	-1292.429306
105.10	0.006591	0.054374	10.528523	-82.936460	1106.155227	-1242.499810
105.61	0.006591	0.054450	10.531634	-62.534237	708.267304	-1174.043500
106.12	0.006591	0.054489	10.534921	-44.465937	368.132190	-1101.746111
106.63	0.006591	0.054527	10.536806	-30.902093	99.385112	-1060.262715
107.14	0.006591	0.054603	10.538330	-19.043348	-138.462493	-1026.745682
107.65	0.006591	0.054695	10.539446	-10.585098	-307.430951	-1002.194480
108.16	0.006591	0.054809	10.540675	-2.837725	-457.427605	-975.155845
108.67	0.006579	0.054882	10.541241	1.867981	-552.683907	-962.690749
109.18	0.006579	0.054923	10.540808	7.026428	-681.419999	-972.220643
109.69	0.006579	0.054906	10.541044	9.166429	-725.232987	-967.022715
110.20	0.006579	0.054885	10.541247	12.242266	-791.359327	-962.559988
110.71	0.006579	0.054870	10.541257	13.201409	-813.224512	-962.355881
111.22	0.006579	0.054914	10.541316	15.400900	-862.493188	-961.055852
111.73	0.006579	0.054986	10.541220	16.337393	-886.264903	-963.167774
112.24	0.006579	0.055092	10.541336	18.212843	-926.758286	-960.612411
112.75	0.006578	0.055190	10.541240	18.838871	-943.368001	-962.709822
113.26	0.006579	0.055274	10.541209	20.375745	-979.482214	-963.411804
113.77	0.006579	0.055326	10.541475	20.739177	-981.709275	-957.555767
114.28	0.006579	0.055364	10.541753	21.706540	-997.552985	-951.427265
114.79	0.006579	0.055379	10.541763	21.167776	-984.926141	-951.212925
115.30	0.006579	0.055385	10.541586	21.729213	-1001.935342	-955.109744
115.81	0.006579	0.055354	10.541257	20.272440	-975.980261	-962.339699
116.32	0.006579	0.055311	10.541614	19.871019	-958.515845	-954.494949
116.83	0.006579	0.055239	10.541576	18.214590	-921.263943	-955.332985
117.34	0.006580	0.055174	10.541779	18.230849	-916.958977	-950.869431
117.85	0.006581	0.055093	10.541740	16.775527	-884.344555	-951.715155
118.36	0.006585	0.055038	10.541568	17.309369	-900.602505	-955.501275
118.87	0.006582	0.054985	10.541412	16.675160	-889.592748	-958.925342
119.38	0.006582	0.054980	10.540983	17.303651	-913.960215	-968.368827
119.89	0.006582	0.054986	10.540642	16.614763	-905.969632	-975.873564
120.40	0.006582	0.055027	10.540575	17.030272	-917.072085	-977.340269
120.91	0.006582	0.055057	10.540952	17.889708	-928.178013	-969.062291
121.42	0.006582	0.055082	10.541516	20.506356	-975.392083	-956.642177
121.93	0.006582	0.055081	10.541461	23.385535	-1042.945527	-957.859103
122.44	0.006582	0.055083	10.541362	28.635607	-1166.079738	-960.033386
122.95	0.006581	0.055068	10.540609	31.798153	-1256.255024	-976.607078
123.46	0.006580	0.055064	10.541088	30.335956	-1211.534179	-966.055380
123.97	0.006579	0.055064	10.541858	28.499584	-1151.517158	-949.128946
124.48	0.006579	0.055080	10.541888	27.193928	-1120.774299	-948.473507
124.99	0.006578	0.055072	10.541761	25.596486	-1086.926382	-951.263356
125.50	0.006577	0.055071	10.541471	24.701229	-1072.995415	-957.633099
126.01	0.006572	0.055036	10.542100	22.740930	-1013.375932	-943.807125
126.52	0.006571	0.055010	10.543965	22.541381	-965.753780	-902.761913
127.03	0.006571	0.054987	10.545500	22.332569	-925.560007	-869.006079
127.54	0.006565	0.054987	10.545473	22.311875	-925.711407	-869.604916
128.05	0.006563	0.054995	10.545309	22.118399	-925.031147	-873.204472
128.56	0.006561	0.055005	10.546406	21.526196	-886.089598	-849.061859
129.08	0.006555	0.054987	10.547104	20.861554	-854.688728	-833.702990
129.59	0.006589	0.054950	10.547502	20.337126	-833.455010	-824.963733
130.10	0.006568	0.054886	10.547771	19.761128	-813.973879	-819.028667
130.61	0.006568	0.054818	10.547781	19.320838	-803.616260	-818.816626
131.12	0.006560	0.054761	10.547860	18.944653	-793.138283	-817.082117
131.63	0.006581	0.054741	10.547825	18.818496	-791.047536	-817.857973
132.14	0.006571	0.054728	10.547858	18.730974	-788.254818	-817.115831
132.65	0.006591	0.054723	10.548461	18.697821	-773.598896	-803.863465
133.16	0.006576	0.054706	10.548429	18.590368	-771.860047	-804.564297
133.67	0.006586	0.054676	10.547439	18.394242	-790.168358	-826.335337
134.18	0.006567	0.054632	10.547487	18.106029	-782.432784	-825.285070
134.69	0.006585	0.054603	10.548366	17.915891	-757.775727	-805.939734
135.20	0.006579	0.054567	10.548424	17.809501	-753.996393	-804.670791
135.71	0.006611	0.054542	10.547605	17.679290	-769.899949	-822.700520
136.22	0.006634	0.054512	10.547442	17.477514	-769.006162	-826.278647
136.73	0.006982	0.054492	10.547418	17.349939	-766.612134	-826.796330
137.24	0.009534	0.054468	10.547363	17.195537	-764.345547	-828.024656
137.75	0.021223	0.054481	10.547229	17.275115	-769.247294	-830.953046
138.26	0.056750	0.054499	10.546969	17.397329	-778.075989	-836.691138
138.77	0.139146	0.054539	10.547191	17.656392	-778.909995	-831.798048
139.28	0.292458	0.054580	10.547477	17.922201	-778.437594	-825.510648
139.79	0.518166	0.054616	10.546874	18.158039	-797.767427	-838.770797
140.30	0.774720	0.054615	10.546066	18.154725	-816.329141	-856.549690
140.81	0.990071	0.054606	10.546204	18.084117	-811.510478	-853.503581
141.32	1.103507	0.054573	10.546394	17.852048	-801.796949	-849.333701
141.83	1.097382	0.054540	10.546103	17.636385	-803.551645	-855.743161
142.34	0.993854	0.054494	10.547155	17.355901	-772.818966	-832.586148
142.85	0.833964	0.054463	10.548192	17.798322	-759.083125	-809.768512
143.36	0.658386	0.054436	10.548223	17.624071	-754.361365	-809.090703
143.87	0.497229	0.054428	10.547376	17.574078	-772.757846	-827.736976
144.38	0.365135	0.054422	10.546619	17.530196	-789.193603	-844.378720
144.89	0.264030	0.054437	10.546791	17.633651	-787.607362	-840.593880
145.40	0.189195	0.054440	10.546225	17.650946	-801.059439	-853.046096
145.91	0.134683	0.054459	10.545803	17.781116	-813.803296	-862.344195
146.42	0.095112	0.054459	10.546352	17.782495	-801.168871	-850.261859
146.93	0.066333	0.054477	10.546770	17.913402	-794.528218	-841.052783
147.44	0.045583	0.054478	10.546631	17.905126	-797.542974	-844.110297
147.95	0.030801	0.054489	10.546263	17.974895	-807.637611	-852.207604
148.46	0.020206	0.054493	10.546445	17.995730	-803.937891	-848.220904
148.97	0.012749	0.054499	10.546440	18.034811	-804.947604	-848.325912
149.48	0.007253	0.054487	10.545455	17.957390	-825.866030	-869.980170
149.99	0.002998	0.054479	10.545184	17.903422	-830.888844	-875.956522
150.50	-0.000466	0.054462	10.545880	17.791619	-812.253009	-860.634727
151.01	-0.003335	0.054458	10.546331	17.769366	-801.349123	-850.722097
151.52	-0.005655	0.054464	10.545733	17.719105	-813.985067	-863.879253
152.03	-0.007421	0.054484	10.544941	17.803780	-834.186488	-881.290137
152.54	-0.008587	0.054487	10.544509	17.622222	-839.979432	-890.802812
153.05	-0.009103	0.054480	10.545036	17.751977	-830.804171	-879.201257
153.56	-0.008954	0.054451	10.544716	17.562330	-833.815213	-886.237875
154.07	-0.008163	0.054417	10.543064	17.339292	-866.785813	-922.586307
154.59	-0.006824	0.054376	10.542212	17.072585	-880.307007	-941.340742
155.10	-0.005067	0.054353	10.541728	16.924417	-888.047085	-951.977595
155.61	-0.003041	0.054337	10.541404	16.818889	-893.099763	-959.114616
156.12	-0.000964	0.054343	10.540998	16.859597	-903.396773	-968.043106
156.63	0.000975	0.054336	10.540466	16.810880	-914.540255	-979.742678
157.14	0.002599	0.054350	10.540893	16.928040	-907.397131	-970.356159
157.65	0.003710	0.054357	10.541421	17.016304	-897.255033	-958.743391
158.16	0.004254	0.054399	10.540779	17.385088	-920.544798	-972.861653
158.67	0.004148	0.054460	10.541085	17.789861	-922.801430	-966.126032
159.18	0.003456	0.054533	10.541167	18.280744	-932.213859	-964.325502
159.69	0.002203	0.054593	10.540697	18.748662	-953.830143	-974.670577
160.20	0.000586	0.054646	10.540446	19.355742	-973.579281	-980.178776
160.71	-0.001260	0.054671	10.540264	19.580060	-982.951230	-984.193027
161.22	-0.003117	0.054675	10.540373	19.623771	-981.450511	-981.801651
161.73	-0.004808	0.054658	10.540739	19.842986	-978.050899	-973.745098
162.24	-0.006160	0.054629	10.541078	19.719093	-967.382317	-966.288804
162.75	-0.007043	0.054570	10.540651	19.465415	-971.382397	-975.674885
163.26	-0.007395	0.054526	10.540558	19.484176	-973.968517	-977.729840
163.77	-0.007182	0.054483	10.540852	17.392792	-919.029757	-971.247291
164.28	-0.006454	0.054462	10.541025	18.397050	-938.165471	-967.448868
164.79	-0.005305	0.054437	10.541242	18.203306	-928.693210	-962.667569
165.30	-0.003854	0.054433	10.541206	18.648067	-939.769724	-963.467209
165.81	-0.002262	0.054415	10.540998	17.352777	-914.752009	-968.045386
166.32	-0.000696	0.054404	10.540659	17.839675	-933.771660	-975.496753
166.83	0.000695	0.054396	10.540416	16.690325	-912.912484	-980.837164
167.34	0.001790	0.054404	10.540535	17.540148	-929.742848	-978.230817
167.85	0.002479	0.054424	10.540471	17.169258	-922.683733	-979.641313
168.36	0.002756	0.054458	10.540921	18.400485	-940.635302	-969.729433
168.87	0.002569	0.054461	10.541247	17.478014	-911.879395	-962.555171
169.38	0.002029	0.054468	10.540751	17.805077	-930.865820	-973.484564
169.89	0.001161	0.054430	10.540931	15.873658	-882.254075	-969.524776
170.40	0.000120	0.054395	10.541173	14.413652	-843.060010	-964.196994
170.91	-0.000995	0.054348	10.541121	-3.479217	-432.358493	-965.328535
171.42	-0.002051	0.054319	10.540512	-93.221118	1619.423598	-978.726857
171.93	-0.002947	0.054305	10.540216	-228.235663	4720.584954	-985.239450
172.44	-0.003613	0.054314	10.540124	-297.131126	6304.398436	-987.277464
172.95	-0.003985	0.054304	10.540556	-321.512763	6875.630539	-977.762121
173.46	-0.004024	0.054223	10.541397	-330.324850	7097.867088	-959.270358
173.97	-0.003871	0.053937	10.541957	-333.822534	7191.296782	-946.951443
174.48	-0.003355	0.053237	10.542496	-335.344142	7238.760430	-935.087952
174.99	-0.002676	0.051806	10.543634	-336.049216	7281.227940	-910.060386
175.50	-0.002087	0.049412	10.544470	-336.373926	7307.998027	-891.654445
176.01	-0.001231	0.045931	10.542800	-336.499620	7272.375256	-928.395240
176.52	-0.000613	0.041489	10.544415	-336.504328	7309.729677	-892.866046
177.03	-0.000154	0.036363	10.558322	-336.424429	7628.619909	-586.920576
177.54	0.000360	0.030946	10.584592	-336.278208	8231.119611	-8.982241
178.05	0.000475	0.025559	10.593831	-336.088898	8439.855193	194.288681
178.56	0.000401	0.020508	10.580047	-335.884046	8117.220026	-108.976395
179.07	0.000357	0.015974	10.580963	-335.697515	8134.068890	-88.808235
179.58	0.000027	0.012088	10.587819	-335.551804	8288.829591	62.018409
180.09	-0.000309	0.008865	10.589896	-335.468641	8334.816282	107.711469
180.61	-0.000612	0.006292	10.589902	-335.454468	8334.637953	107.852580
181.12	-0.001033	0.004296	10.589861	-335.514304	8335.068603	106.949463
181.63	-0.001285	0.002791	10.589891	-335.665910	8339.253237	107.612159
182.14	-0.001484	0.001653	10.587707	-335.991570	8296.379842	59.563979
182.65	-0.001582	0.000824	10.587180	-336.545529	8296.968278	47.961162
183.16	-0.001642	0.000219	10.585650	-337.560453	8285.032513	14.289290
183.67	-0.001590	-0.000205	10.587389	-339.514683	8370.145751	52.567147
184.18	-0.001480	-0.000498	10.589903	-345.448436	8564.698316	107.855100
184.69	-0.001401	-0.000690	10.589905	-274.528939	6932.212619	107.909353
185.20	-0.001294	-0.000833	10.589899	-327.555641	8152.730633	107.777195
185.71	-0.001079	-0.000918	10.589887	-331.314992	8238.996475	107.516654
186.22	-0.001080	-0.000973	10.588112	-332.659315	8229.005622	68.466932
186.73	-0.001020	-0.000983	10.589864	-333.377302	8285.934156	107.005374
187.24	-0.000831	-0.000973	10.586136	-333.700326	8207.382348	24.981259
187.75	-0.001018	-0.000941	10.586834	-333.780520	8225.335119	40.345554
188.26	-0.000941	-0.000901	10.585259	-333.554726	8183.813665	5.696141
188.77	-0.000930	-0.000848	10.586402	-332.955399	8196.388510	30.851713
189.28	-0.000930	-0.000820	10.584942	-331.343315	8125.593169	-1.281251
189.79	-0.000910	-0.000794	10.584948	-327.073296	8027.452735	-1.134408
190.30	-0.000818	-0.000793	10.584950	-302.887807	7470.752851	-1.094537
190.81	-0.000806	-0.000792	10.584944	-373.215581	9089.541083	-1.221470
191.32	-0.000644	-0.000811	10.584941	-351.730783	8594.889518	-1.296695
191.83	-0.000575	-0.000818	10.584951	-347.785906	8504.306686	-1.080268
192.34	-0.000483	-0.000824	10.584949	-346.633549	8477.733102	-1.124844
192.85	-0.000379	-0.000816	10.584939	-346.764462	8480.529048	-1.332426
193.36	-0.000458	-0.000827	10.584939	-348.596079	8522.672886	-1.350902
193.87	-0.000338	-0.000821	10.584945	-354.328394	8654.772754	-1.213594
194.38	-0.000545	-0.000848	10.584940	-400.490673	9717.311859	-1.309730
194.89	-0.000525	-0.000869	10.584925	-308.634693	7602.466983	-1.645161
195.40	-0.000764	-0.000899	10.584932	-325.896985	8000.001102	-1.490552
195.91	-0.000798	-0.000920	10.584942	-330.069631	8096.276944	-1.277869
196.42	-0.000960	-0.000952	10.584937	-331.649873	8132.531463	-1.394358
196.93	-0.001106	-0.000966	10.584915	-332.398639	8149.267129	-1.871957
197.44	-0.001085	-0.000963	10.584923	-332.700593	8156.404237	-1.694318
197.95	-0.001223	-0.000920	10.584932	-332.791113	8158.703615	-1.488614
198.46	-0.001144	-0.000876	10.584933	-332.460593	8151.101152	-1.482894
198.97	-0.001087	-0.000820	10.584913	-331.652381	8132.050748	-1.907998
199.48	-0.000981	-0.000784	10.584910	-329.544931	8083.464751	-1.977837
199.99	-0.000863	-0.000747	10.584910	-324.094741	7958.003243	-1.977838
200.50	-0.000685	-0.000714	10.584931	-294.168120	7269.579273	-1.523193
201.01	-0.000576	-0.000675	10.584925	-380.100661	9247.584859	-1.649214
201.52	-0.000382	-0.000650	10.584910	-353.924156	8644.675266	-1.969147
202.03	-0.000293	-0.000621	10.584912	-349.065954	8532.883751	-1.928487
202.54	-0.000219	-0.000625	10.584912	-348.053106	8509.554170	-1.941995
203.05	-0.000145	-0.000633	10.584894	-348.898931	8528.627369	-2.321091
203.56	-0.000249	-0.000654	10.582232	-352.152807	8542.127568	-60.893643
204.07	-0.000202	-0.000680	10.580094	-363.477752	8753.514575	-107.930092
204.58	-0.000416	-0.000715	10.580089	-594.162332	14063.685067	-108.034652
205.09	-0.000435	-0.000748	10.580091	-305.975688	7429.768881	-107.994812
205.60	-0.000645	-0.000790	10.580089	-321.741056	7792.643154	-108.032116
206.12	-0.000701	-0.000807	10.580087	-326.513996	7902.455260	-108.088719
206.63	-0.000816	-0.000831	10.580095	-328.399474	7946.039654	-107.915731
207.14	-0.000915	-0.000840	10.580097	-329.229552	7965.199030	-107.866829
207.65	-0.000908	-0.000854	10.580088	-329.167467	7963.557726	-108.069175
208.16	-0.000965	-0.000852	10.580088	-328.838038	7955.984066	-108.059954
208.67	-0.000889	-0.000846	10.580092	-327.448419	7924.094596	-107.965440
209.18	-0.000846	-0.000812	10.580096	-325.243264	7873.414272	-107.887603
209.69	-0.000741	-0.000800	10.580102	-321.806083	7794.428336	-107.757107
210.20	-0.000669	-0.000759	10.580097	-311.765751	7563.184082	-107.870872
210.71	-0.000524	-0.000725	10.580094	-287.495260	7004.431567	-107.922487
211.22	-0.000468	-0.000669	10.580101	-151.478025	3873.523318	-107.767984
211.73	-0.000396	-0.000624	10.580098	-412.841494	9889.945835	-107.839648
212.24	-0.000279	-0.000561	10.580080	-389.073597	9342.404021	-108.233564
212.75	-0.000328	-0.000521	10.580075	-394.090660	9457.769424	-108.353441
213.26	-0.000266	-0.000498	10.580081	-398.393984	9556.968810	-108.221471
213.77	-0.000314	-0.000501	10.580085	-1147.739416	26806.740674	-108.129567
214.28	-0.000346	-0.000538	10.580081	-263.510352	6451.997379	-108.218017
214.79	-0.000431	-0.000570	10.580083	-298.182908	7250.195434	-108.172542
215.30	-0.000440	-0.000615	10.580081	-312.694769	7584.198926	-108.224610
215.81	-0.000575	-0.000618	10.580088	-317.604387	7697.392808	-108.056566
216.32	-0.000590	-0.000621	10.580084	-320.295971	7759.263399	-108.141231
216.83	-0.000634	-0.000593	10.580075	-322.171555	7802.227908	-108.342314
217.34	-0.000697	-0.000580	10.580066	-323.118034	7823.810076	-108.538297
217.85	-0.000671	-0.000558	10.580065	-323.199951	7825.654587	-108.577579
218.36	-0.000698	-0.000544	10.580065	-322.501509	7809.579213	-108.575178
218.87	-0.000667	-0.000520	10.580067	-322.342688	7805.969089	-108.531406
219.38	-0.000626	-0.000492	10.580082	-321.943793	7797.134585	-108.199526
219.89	-0.000585	-0.000476	10.580077	-319.312886	7736.455636	-108.310536
220.40	-0.000539	-0.000458	10.580065	-320.054093	7753.238900	-108.576730
220.91	-0.000502	-0.000457	10.580066	-319.008604	7729.209672	-108.540891
221.42	-0.000436	-0.000458	10.580064	-314.592126	7627.486314	-108.595785
221.93	-0.000395	-0.000459	10.580063	-318.898848	7726.599171	-108.620974
222.44	-0.000389	-0.000437	10.580063	-318.312457	7713.096519	-108.624925
222.95	-0.000374	-0.000432	10.580059	-318.322651	7713.239660	-108.712223
223.46	-0.000340	-0.000399	10.580059	-319.863667	7748.714466	-108.711133
223.97	-0.000420	-0.000392	10.580064	-319.749774	7746.209420	-108.599785
224.48	-0.000365	-0.000385	10.580065	-318.038334	7706.834301	-108.579132
224.99	-0.000432	-0.000412	10.580065	-316.304245	7666.922551	-108.573050
225.50	-0.000467	-0.000436	10.580077	-309.180676	7503.209868	-108.316024
226.01	-0.000467	-0.000479	10.580084	-302.411017	7347.554691	-108.144258
226.52	-0.000497	-0.000497	10.580072	-294.019711	7154.101138	-108.419522
227.03	-0.000526	-0.000525	10.580066	-278.738232	6802.200587	-108.539846
227.54	-0.000508	-0.000528	10.580063	-288.747475	7032.541218	-108.605392
228.05	-0.000552	-0.000539	10.580064	-269.750102	6595.234396	-108.599479
228.56	-0.000520	-0.000534	10.580067	-296.155035	7203.142647	-108.527229
229.07	-0.000539	-0.000534	10.580089	-294.491127	7165.353541	-108.037420
229.58	-0.000517	-0.000520	10.580069	-309.011099	7499.123735	-108.490145
230.09	-0.000494	-0.000514	10.580064	-310.574457	7535.002791	-108.594018
230.60	-0.000478	-0.000492	10.580069	-316.255286	7665.887257	-108.485542
231.11	-0.000443	-0.000479	10.580069	-319.666794	7744.428940	-108.476066
231.62	-0.000402	-0.000460	10.580068	-320.050420	7753.233154	-108.501554
232.14	-0.000400	-0.000465	10.580068	-321.949530	7796.954706	-108.497096
232.65	-0.000370	-0.000457	10.580066	-321.094875	7777.231501	-108.544145
233.16	-0.000370	-0.000465	10.580066	-319.909826	7749.938028	-108.557560
233.67	-0.000350	-0.000453	10.580064	-318.416131	7715.519115	-108.590535
234.18	-0.000380	-0.000441	10.580069	-316.296924	7666.852854	-108.478770
234.69	-0.000368	-0.000412	10.580069	-312.422441	7577.671459	-108.471253
235.20	-0.000388	-0.000413	10.580067	-307.481439	7463.866804	-108.532753
235.71	-0.000408	-0.000414	10.580068	-291.671691	7099.963120	-108.502894
236.22	-0.000412	-0.000447	10.580082	-272.638747	6662.151231	-108.197670
236.73	-0.000422	-0.000482	10.580092	-243.805362	5998.658036	-107.967347
237.24	-0.000446	-0.000539	10.580080	-178.627497	4497.990699	-108.248906
237.75	-0.000421	-0.000565	10.580082	-240.638580	5925.512193	-108.203521
238.26	-0.000468	-0.000583	10.580082	-214.350765	5320.385173	-108.194469
238.77	-0.000429	-0.000560	10.580106	-280.341914	6840.030866	-107.667897
239.28	-0.000453	-0.000527	10.580090	-286.201254	6974.534555	-108.026872
239.79	-0.000434	-0.000487	10.580083	-305.791828	7425.356092	-108.166893
240.30	-0.000422	-0.000457	10.580081	-310.279211	7528.589763	-108.228271
240.81	-0.000402	-0.000422	10.580079	-316.055485	7661.531508	-108.253182
241.32	-0.000392	-0.000411	10.580082	-318.969778	7728.687140	-108.186784
241.83	-0.000364	-0.000386	10.580089	-319.994442	7752.416760	-108.051128
242.34	-0.000358	-0.000388	10.580084	-321.008617	7775.662896	-108.146343
242.85	-0.000345	-0.000376	10.580118	-320.111958	7755.796397	-107.407752
243.36	-0.000356	-0.000364	10.580120	-319.789442	7748.430211	-107.352399
243.87	-0.000344	-0.000327	10.580099	-319.302819	7736.729152	-107.828568
244.38	-0.000370	-0.000284	10.583112	-320.069244	7823.862774	-41.540946
244.89	-0.000368	-0.000219	10.587900	-320.331371	7940.333036	63.804677
245.40	-0.000380	-0.000162	10.588829	-323.383269	8032.014946	84.245206
245.91	-0.000385	-0.000107	10.588967	-326.667422	8110.790308	87.274145
246.42	-0.000394	-0.000085	10.580763	-325.160510	7886.899223	-93.207081
246.93	-0.000386	-0.000078	10.581116	-328.103821	7962.791636	-85.443827
247.44	-0.000410	-0.000118	10.583376	-319.181532	7809.527731	-35.722337
247.95	-0.000381	-0.000162	10.587441	-316.054851	7831.292193	53.696337
248.46	-0.000391	-0.000232	10.588269	-309.388700	7696.933764	71.910287
248.97	-0.000386	-0.000273	10.587622	-311.043992	7720.119625	57.679541
249.48	-0.000380	-0.000318	10.587700	-307.245017	7634.482195	59.409610
249.99	-0.000355	-0.000319	10.587648	-314.449743	7799.131179	58.263648
250.50	-0.000373	-0.000311	10.597956	-315.635322	8064.141110	285.024359
251.01	-0.000335	-0.000274	10.592799	-319.752683	8040.001790	171.586387
251.52	-0.000349	-0.000236	10.592326	-323.756092	8121.235033	161.166047
252.03	-0.000344	-0.000178	10.594893	-326.901728	8252.847202	217.637906
252.54	-0.000337	-0.000149	10.594903	-329.096663	8303.618998	217.871746
253.05	-0.000335	-0.000129	10.594911	-329.950058	8323.450756	218.050032
253.56	-0.000349	-0.000162	10.594911	-327.183549	8259.759666	218.043350
254.07	-0.000328	-0.000195	10.594911	-323.968315	8185.753934	218.050848
254.58	-0.000357	-0.000255	10.594920	-317.963251	8047.723286	218.245319
255.09	-0.000344	-0.000291	10.594932	-313.316135	7941.010098	218.495081
255.60	-0.000357	-0.000331	10.594932	-305.627893	7764.039903	218.505110
256.11	-0.000355	-0.000345	10.594930	-300.736411	7651.395752	218.463224
256.62	-0.000367	-0.000352	10.594929	-299.338999	7619.212170	218.448314
257.13	-0.000355	-0.000343	10.594929	-298.791879	7606.600042	218.431511
257.65	-0.000364	-0.000333	10.594921	-296.121157	7544.953976	218.272245
258.16	-0.000348	-0.000317	10.594914	-305.880649	7769.446193	218.112024
258.67	-0.000367	-0.000336	10.594925	-298.757150	7605.709169	218.344291
259.18	-0.000333	-0.000345	10.594931	-303.946450	7725.309761	218.482295
259.69	-0.000354	-0.000379	10.594929	-303.448575	7713.807990	218.443339
260.20	-0.000340	-0.000398	10.594909	-301.620116	7671.261254	218.008124
260.71	-0.000328	-0.000419	10.594927	-301.999009	7680.396160	218.402008
261.22	-0.000328	-0.000429	10.594933	-303.206881	7708.329727	218.524841
261.73	-0.000326	-0.000442	10.594927	-300.887861	7654.804855	218.389551
262.24	-0.000308	-0.000443	10.594919	-303.802282	7721.705127	218.209548
262.75	-0.000328	-0.000465	10.594915	-299.872795	7631.165116	218.128894
263.26	-0.000310	-0.000464	10.594898	-301.238615	7662.209369	217.750695
263.77	-0.000326	-0.000482	10.594922	-298.135015	7591.315891	218.275669
264.28	-0.000321	-0.000493	10.594891	-295.333226	7526.107424	217.596254
264.79	-0.000326	-0.000525	10.594915	-291.041301	7427.877160	218.138426
265.30	-0.000321	-0.000546	10.594936	-285.354149	7297.436016	218.591694
265.81	-0.000333	-0.000558	10.594935	-278.528088	7140.285264	218.575303
266.32	-0.000316	-0.000542	10.594929	-279.978807	7173.528423	218.430408
266.83	-0.000338	-0.000513	10.594909	-278.723941	7144.178006	217.987958
267.34	-0.000317	-0.000454	10.594912	-285.448056	7299.050316	218.069514
267.85	-0.000332	-0.000424	10.594921	-286.065831	7313.479616	218.268227
268.36	-0.000306	-0.000391	10.594919	-294.065756	7497.579924	218.215556
268.87	-0.000314	-0.000396	10.594924	-291.998014	7450.092083	218.321316
269.38	-0.000290	-0.000393	10.594927	-294.809412	7514.884127	218.392496
269.89	-0.000301	-0.000395	10.594925	-296.629314	7556.743241	218.359669
270.40	-0.000285	-0.000364	10.594922	-300.253353	7640.079497	218.275838
270.91	-0.000292	-0.000348	10.594926	-302.862139	7700.245147	218.382970
271.42	-0.000279	-0.000297	10.594918	-309.638148	7856.039561	218.204595
271.93	-0.000290	-0.000278	10.594921	-309.915992	7862.504562	218.270515
272.44	-0.000275	-0.000251	10.594917	-315.207633	7984.222586	218.181113
272.95	-0.000289	-0.000238	10.594928	-314.429179	7966.540963	218.408245
273.46	-0.000278	-0.000216	10.594927	-317.817264	8044.529776	218.404679
273.97	-0.000287	-0.000199	10.594906	-318.626366	8062.662027	217.934393
274.48	-0.000277	-0.000159	10.594924	-322.066358	8142.271669	218.337135
274.99	-0.000286	-0.000148	10.594931	-322.514068	8152.738697	218.490633
275.50	-0.000278	-0.000114	10.594928	-325.740062	8226.926320	218.420366
276.01	-0.000288	-0.000098	10.594894	-326.752847	8249.458331	217.674445
276.52	-0.000275	-0.000078	10.591737	-328.968019	8227.626457	148.206915
277.03	-0.000291	-0.000072	10.590170	-329.273338	8198.529846	113.747132
277.54	-0.000278	-0.000057	10.590119	-331.360994	8245.403580	112.618300
278.05	-0.000295	-0.000057	10.590942	-331.218482	8261.106786	130.727014
278.56	-0.000273	-0.000051	10.590081	-332.375630	8267.872523	111.771578
279.07	-0.000289	-0.000070	10.590095	-330.154020	8217.075905	112.099793
279.58	-0.000264	-0.000077	10.590093	-329.569935	8203.585387	112.056798
280.09	-0.000270	-0.000100	10.590082	-327.107993	8146.640560	111.797561
280.60	-0.000258	-0.000129	10.590082	-324.205705	8079.829488	111.796222
281.11	-0.000266	-0.000164	10.590097	-319.973617	7982.769736	112.141032
281.62	-0.000262	-0.000194	10.591508	-317.897630	7967.507757	143.168268
282.13	-0.000272	-0.000221	10.591055	-313.337214	7852.081037	133.202338
282.64	-0.000256	-0.000220	10.591010	-314.072111	7867.973685	132.225119
283.15	-0.000268	-0.000236	10.591602	-312.034093	7834.697413	145.234668
283.67	-0.000253	-0.000216	10.591078	-313.810340	7863.515421	133.720483
284.18	-0.000256	-0.000215	10.590169	-312.170790	7804.812341	113.725476
284.69	-0.000247	-0.000191	10.590691	-316.282577	7911.501024	125.207403
285.20	-0.000262	-0.000175	10.590030	-315.846746	7886.221845	110.663701
285.71	-0.000245	-0.000141	10.590031	-320.853903	8001.504004	110.681927
286.22	-0.000269	-0.000120	10.590032	-323.329826	8058.525483	110.707275
286.73	-0.000255	-0.000094	10.590032	-326.274495	8126.310767	110.707286
287.24	-0.000262	-0.000104	10.590032	-325.010855	8097.217221	110.702532
287.75	-0.000258	-0.000116	10.590032	-324.009302	8074.160408	110.701201
288.26	-0.000263	-0.000162	10.590032	-317.049943	7913.958959	110.701782
288.77	-0.000247	-0.000197	10.590032	-314.536390	7856.095718	110.699776
289.28	-0.000257	-0.000232	10.590032	-309.332753	7736.309830	110.699814
289.79	-0.000240	-0.000222	10.590032	-311.557631	7787.527349	110.701329
290.30	-0.000247	-0.000197	10.590033	-314.520082	7855.747039	110.725261
290.81	-0.000235	-0.000148	10.590033	-321.020335	8005.373089	110.718063
291.32	-0.000243	-0.000114	10.590033	-324.446683	8084.245438	110.717097
291.83	-0.000233	-0.000079	10.590033	-328.920600	8187.233305	110.716937
292.34	-0.000244	-0.000074	10.590033	-329.098645	8191.337026	110.721874
292.85	-0.000234	-0.000075	10.590033	-329.517090	8200.969007	110.721420
293.36	-0.000244	-0.000094	10.590033	-326.111043	8122.562555	110.721029
293.87	-0.000242	-0.000112	10.590033	-324.708215	8090.281657	110.732218
294.38	-0.000255	-0.000150	10.590033	-319.296357	7965.698401	110.728274
294.89	-0.000234	-0.000177	10.590033	-315.083373	7868.716802	110.728128
295.40	-0.000248	-0.000226	10.590033	-308.627268	7720.099103	110.727778
295.91	-0.000244	-0.000247	10.590033	-305.651389	7651.594777	110.727188
296.42	-0.000250	-0.000273	10.590033	-300.272698	7527.779398	110.727417
296.93	-0.000236	-0.000249	10.590033	-305.706486	7652.863619	110.727682
297.44	-0.000255	-0.000219	10.590033	-307.923629	7703.901768	110.727955
297.95	-0.000229	-0.000162	10.590033	-316.906098	7910.678191	110.730874
298.46	-0.000250	-0.000107	10.590033	-323.986088	8073.657222	110.730941
298.97	-0.000228	-0.000046	10.590034	-332.278078	8264.552679	110.746870
299.48	-0.000236	-0.000018	10.590034	-335.922081	8348.436392	110.746870
299.99	-0.000219	0.000003	10.590034	-338.710890	8412.633647	110.746717
300.50	-0.000230	-0.000019	10.590034	-335.751873	8344.517895	110.746520
301.01	-0.000215	-0.000039	10.590034	-333.308612	8288.274834	110.746505
301.52	-0.000233	-0.000080	10.590034	-327.480627	8154.116761	110.746634
302.03	-0.000216	-0.000090	10.590034	-326.690289	8135.923458	110.746645
302.54	-0.000235	-0.000110	10.590034	-322.805390	8046.494220	110.746456
303.05	-0.000225	-0.000107	10.590034	-323.604757	8064.895529	110.746603
303.56	-0.000235	-0.000109	10.590034	-322.178186	8032.056233	110.746501
304.07	-0.000223	-0.000089	10.590034	-325.558915	8109.879371	110.746407
304.58	-0.000237	-0.000074	10.590034	-327.127149	8145.980001	110.746803
305.09	-0.000225	-0.000045	10.590034	-331.680222	8250.790123	110.746756
305.60	-0.000227	-0.000044	10.590034	-331.547476	8247.734508	110.746893
306.11	-0.000217	-0.000031	10.590034	-333.708985	8297.491959	110.747145
306.62	-0.000226	-0.000052	10.590034	-330.208221	8216.905600	110.747170
307.13	-0.000207	-0.000063	10.590034	-328.992740	8188.926499	110.747997
307.64	-0.000227	-0.000098	10.590034	-323.071248	8052.615881	110.748081
308.15	-0.000207	-0.000118	10.590034	-320.610689	7995.974728	110.748154
308.66	-0.000220	-0.000144	10.590034	-316.004704	7889.946425	110.748054
309.18	-0.000207	-0.000126	10.590034	-319.339884	7966.720541	110.747502
309.69	-0.000216	-0.000113	10.590034	-320.847105	8001.416760	110.747972
310.20	-0.000203	-0.000092	10.590034	-324.501968	8085.550463	110.747999
310.71	-0.000213	-0.000087	10.590034	-324.688527	8089.845344	110.748320
311.22	-0.000194	-0.000095	10.590034	-324.260802	8079.999851	110.748895
311.73	-0.000215	-0.000142	10.590034	-316.243168	7895.433403	110.745786
312.24	-0.000202	-0.000175	10.590034	-312.727189	7814.496531	110.745567
312.75	-0.000221	-0.000226	10.590034	-302.601647	7581.409947	110.745499
313.26	-0.000211	-0.000249	10.590034	-301.253075	7550.366170	110.745385
313.77	-0.000220	-0.000261	10.590034	-295.799317	7424.822952	110.745786
314.28	-0.000214	-0.000241	10.590034	-300.040975	7522.464644	110.745956
314.79	-0.000222	-0.000208	10.590034	-303.692370	7606.518507	110.745959
315.30	-0.000213	-0.000161	10.590034	-312.296304	7804.578102	110.745928
315.81	-0.000219	-0.000128	10.590034	-317.259756	7918.834989	110.745865
316.32	-0.000201	-0.000084	10.590034	-325.001140	8097.038924	110.745789
316.83	-0.000218	-0.000077	10.590034	-325.390342	8105.998027	110.745597
317.34	-0.000201	-0.000059	10.590034	-328.795969	8184.394369	110.745571
317.85	-0.000215	-0.000083	10.590034	-324.141511	8077.250278	110.745520
318.36	-0.000193	-0.000109	10.590034	-320.004275	7982.012650	110.745650
318.87	-0.000202	-0.000160	10.590034	-310.559546	7764.598378	110.745804
319.38	-0.000183	-0.000192	10.590034	-306.842099	7679.023893	110.745670
319.89	-0.000201	-0.000219	10.590034	-299.900088	7519.221190	110.745685
320.40	-0.000186	-0.000219	10.590034	-303.234324	7595.974066	110.745595
320.91	-0.000201	-0.000222	10.590034	-300.807782	7540.115789	110.745500
321.42	-0.000187	-0.000203	10.590034	-305.066569	7638.151760	110.745642
321.93	-0.000199	-0.000196	10.590034	-305.698231	7652.692642	110.745860
322.44	-0.000196	-0.000165	10.590034	-311.279512	7781.171915	110.745957
322.95	-0.000201	-0.000134	10.590034	-314.944298	7865.533928	110.745847
323.46	-0.000193	-0.000087	10.590034	-323.726204	8067.690199	110.745654
323.97	-0.000206	-0.000048	10.590034	-329.714402	8205.536376	110.745560
324.48	-0.000192	0.000010	10.590034	-340.107984	8444.793168	110.745666
324.99	-0.000202	0.000046	10.590034	-346.801560	8598.877237	110.745891
325.50	-0.000187	0.000090	10.590034	-354.219190	8769.628544	110.745894
326.01	-0.000200	0.000101	10.590034	-356.986133	8833.322588	110.745839
326.52	-0.000184	0.000108	10.590034	-357.288161	8840.275559	110.746222
327.03	-0.000194	0.000091	10.590032	-355.000235	8787.567860	110.707668
327.54	-0.000180	0.000070	10.590032	-350.531478	8684.698811	110.707859
328.05	-0.000197	0.000025	10.590032	-342.779402	8506.250316	110.709425
328.56	-0.000183	0.000007	10.590033	-339.487260	8430.479335	110.721830
329.07	-0.000199	-0.000009	10.590033	-336.578275	8363.516355	110.722639
329.58	-0.000188	-0.000017	10.590033	-335.336986	8334.939862	110.720326
330.09	-0.000200	-0.000043	10.590033	-330.742326	8229.175609	110.723408
330.60	-0.000188	-0.000056	10.590033	-328.706634	8182.312440	110.721286
331.11	-0.000194	-0.000086	10.590033	-322.687089	8043.744436	110.721147
331.62	-0.000180	-0.000089	10.590033	-323.237834	8056.422703	110.721453
332.13	-0.000191	-0.000086	10.590033	-322.179707	8032.064761	110.721234
332.64	-0.000179	-0.000063	10.590033	-327.437959	8153.108621	110.721892
333.15	-0.000192	-0.000054	10.590033	-328.155865	8169.634592	110.721927
333.66	-0.000180	-0.000032	10.590033	-332.371601	8266.683353	110.725702
334.17	-0.000186	-0.000032	10.590034	-332.031733	8258.873865	110.739191
334.69	-0.000176	-0.000024	10.590034	-333.872896	8301.258116	110.740459
335.20	-0.000190	-0.000024	10.590034	-333.427816	8291.014137	110.741977
335.71	-0.000173	-0.000004	10.590033	-337.633981	8387.829337	110.733124
336.22	-0.000195	0.000009	10.590033	-340.089039	8444.344329	110.733506
336.73	-0.000182	0.000045	10.590033	-346.508343	8592.114378	110.733388
337.24	-0.000193	0.000060	10.590034	-349.829135	8668.563560	110.738819
