Length [m]	OTDR [V]	Brillouin intensity [V]	Fitted Frequency [GHz]	Temperature [”]	Compensated Strain [レュ]	Uncompensated Strain [レュ]
0.51	0.007226	0.040595	10.505384	-151.758585	2152.152310	-1751.561513
1.02	0.007245	0.044177	10.476778	-128.749814	962.762628	-2380.886702
1.53	0.007280	0.047201	10.454766	-93.286040	-361.272174	-2865.156513
2.04	0.007300	0.049722	10.444994	-56.349299	-1436.912540	-3080.137353
2.55	0.007266	0.051827	10.439388	-30.197060	-2168.218324	-3203.467922
3.06	0.007286	0.053623	10.436188	-17.813896	-2527.069714	-3273.861528
3.57	0.007245	0.055160	10.434522	-22.015751	-2468.764630	-3310.510753
4.08	0.007235	0.056490	10.433507	-24.414276	-2436.974363	-3332.854024
4.59	0.007211	0.057618	10.432856	-14.021987	-2691.196715	-3347.158215
5.10	0.007238	0.058544	10.432890	7.767002	-3192.007382	-3346.429058
5.61	0.007226	0.059270	10.433363	26.855578	-3620.497137	-3336.009805
6.12	0.007265	0.059787	10.434020	35.360944	-3801.129414	-3321.550195
6.63	0.007240	0.060111	10.433863	27.266493	-3618.422973	-3325.008145
7.14	0.007248	0.060312	10.432974	13.493601	-3321.886784	-3344.573753
7.65	0.007212	0.060437	10.432824	2.888866	-3081.232973	-3347.877676
8.16	0.007221	0.060532	10.433475	7.130469	-3163.861990	-3333.558373
8.67	0.007213	0.060623	10.433421	22.203784	-3512.080332	-3334.737203
9.18	0.007267	0.060695	10.432681	41.914501	-3982.872936	-3351.009532
9.69	0.007280	0.060709	10.432351	53.971358	-4268.028649	-3358.269695
10.20	0.007288	0.060659	10.433121	56.758457	-4314.427690	-3341.329262
10.71	0.007245	0.060555	10.432342	49.030421	-4154.509685	-3358.479267
11.22	0.007236	0.060448	10.431508	42.240181	-4017.429435	-3376.821673
11.73	0.007177	0.060361	10.431654	42.292864	-4015.279461	-3373.613964
12.24	0.007191	0.060323	10.431287	51.100293	-4226.474247	-3381.675206
12.75	0.007201	0.060341	10.431297	57.881763	-4382.371623	-3381.475123
13.26	0.007246	0.060380	10.432017	59.937527	-4413.076357	-3365.622893
13.77	0.007240	0.060405	10.432614	52.444042	-4226.814088	-3352.492571
14.28	0.007241	0.060413	10.433490	42.416415	-3975.766870	-3333.209686
14.79	0.007191	0.060420	10.433401	33.065482	-3762.569999	-3335.173231
15.30	0.007178	0.060423	10.432814	28.965515	-3681.731738	-3348.090591
15.81	0.007131	0.060460	10.432070	27.204543	-3658.363237	-3364.467704
16.32	0.007138	0.060529	10.432440	28.805112	-3686.666215	-3356.319851
16.83	0.007081	0.060584	10.433066	28.260595	-3659.695124	-3342.548802
17.34	0.007039	0.060594	10.433789	27.929907	-3635.411229	-3326.645708
17.85	0.006908	0.060545	10.432926	27.631708	-3648.449093	-3345.630602
18.36	0.006807	0.060458	10.432556	31.585298	-3747.996673	-3353.774382
18.87	0.006669	0.060350	10.433244	32.690964	-3757.571767	-3338.629262
19.38	0.006589	0.060265	10.433871	36.738822	-3836.285021	-3324.829067
19.89	0.006515	0.060216	10.434435	37.226676	-3834.510378	-3312.423651
20.40	0.006499	0.060189	10.434673	42.497478	-3950.356478	-3307.190570
20.91	0.006455	0.060157	10.435087	42.819140	-3948.213403	-3298.083047
21.42	0.006440	0.060098	10.435956	44.726903	-3972.082029	-3278.959703
21.93	0.006387	0.060012	10.436450	50.768761	-4099.789134	-3268.109591
22.44	0.006368	0.059934	10.436530	47.138800	-4014.369234	-3266.335879
22.95	0.006327	0.059887	10.436503	45.029005	-3966.423142	-3266.927932
23.46	0.006341	0.059886	10.436461	43.933007	-3942.170703	-3267.859953
23.97	0.006339	0.059936	10.436337	35.608662	-3753.396347	-3270.577838
24.48	0.006372	0.060008	10.436991	34.593559	-3714.946136	-3256.190184
24.99	0.006367	0.060075	10.437411	35.429760	-3724.523526	-3246.964337
25.50	0.006395	0.060111	10.436925	34.980194	-3725.387571	-3257.660384
26.02	0.006360	0.060122	10.436557	35.857039	-3754.051178	-3265.748478
26.53	0.006373	0.060113	10.437071	36.549792	-3758.140722	-3254.437647
27.04	0.006348	0.060108	10.436492	32.767354	-3684.423406	-3267.175265
27.55	0.006377	0.060118	10.436074	34.418386	-3732.063535	-3276.365124
28.06	0.006373	0.060128	10.436643	33.895708	-3706.913426	-3263.851567
28.57	0.006405	0.060127	10.436844	34.913565	-3725.719068	-3259.439665
29.08	0.006384	0.060112	10.437931	39.540502	-3807.152379	-3235.518410
29.59	0.006391	0.060068	10.437279	41.283328	-3862.306714	-3249.860448
30.10	0.006347	0.060004	10.436982	40.899104	-3860.310063	-3256.392844
30.61	0.006352	0.059948	10.437775	43.377100	-3899.061444	-3238.944733
31.12	0.006323	0.059902	10.437197	37.812736	-3784.316958	-3251.674845
31.63	0.006349	0.059888	10.437456	40.803348	-3847.168620	-3245.959819
32.14	0.006339	0.059864	10.438247	38.338728	-3772.209686	-3228.575637
32.65	0.006374	0.059847	10.438002	39.789211	-3811.234516	-3233.951079
33.16	0.006354	0.059798	10.438574	39.686089	-3795.677778	-3221.375838
33.67	0.006368	0.059757	10.439950	41.451501	-3804.567802	-3191.090164
34.18	0.006336	0.059697	10.440597	39.139703	-3736.430352	-3176.857292
34.69	0.006354	0.059683	10.440762	39.219736	-3734.476405	-3173.235994
35.20	0.006347	0.059670	10.440737	38.160973	-3710.682900	-3173.788171
35.71	0.006381	0.059692	10.441203	36.491181	-3661.489076	-3163.528180
36.22	0.006372	0.059681	10.441558	35.375315	-3627.628725	-3155.731435
36.73	0.006394	0.059668	10.441383	37.043085	-3670.059087	-3159.584123
37.24	0.006368	0.059625	10.441489	35.774150	-3638.395191	-3157.243762
37.75	0.006378	0.059584	10.442620	37.612007	-3654.621416	-3132.365343
38.26	0.006345	0.059553	10.443026	37.953373	-3653.106265	-3123.424130
38.77	0.006363	0.059548	10.442314	39.151280	-3697.112404	-3139.097476
39.28	0.006350	0.059554	10.441475	37.819442	-3685.798796	-3157.550621
39.79	0.006378	0.059575	10.441432	38.537074	-3703.304096	-3158.490846
40.30	0.006361	0.059561	10.441481	36.452986	-3654.205824	-3157.419346
40.81	0.006379	0.059532	10.442361	37.550135	-3659.157608	-3138.051045
41.32	0.006350	0.059481	10.443311	36.811426	-3620.256618	-3117.164188
41.83	0.006360	0.059444	10.443136	38.479892	-3662.691784	-3121.006194
42.34	0.006334	0.059433	10.443818	37.917222	-3634.000854	-3105.993204
42.85	0.006359	0.059464	10.444564	38.554915	-3631.480491	-3089.586176
43.36	0.006344	0.059500	10.444444	35.941250	-3574.093341	-3092.236624
43.87	0.006367	0.059538	10.443621	35.535582	-3583.740551	-3110.347041
44.38	0.006350	0.059525	10.443749	35.030246	-3569.143094	-3107.518920
44.89	0.006361	0.059486	10.444274	36.987033	-3602.079268	-3095.968649
45.40	0.006336	0.059406	10.444691	36.993672	-3592.607720	-3086.787916
45.91	0.006351	0.059325	10.445062	39.513118	-3642.068522	-3078.645386
46.42	0.006336	0.059249	10.444911	38.315749	-3617.983827	-3081.963399
46.93	0.006367	0.059223	10.444844	37.607903	-3603.231727	-3083.434575
47.44	0.006348	0.059217	10.444708	35.238157	-3551.808854	-3086.418265
47.95	0.006369	0.059242	10.444923	35.713147	-3557.796341	-3081.699662
48.46	0.006345	0.059251	10.445772	35.734236	-3538.692069	-3063.012913
48.97	0.006354	0.059258	10.446221	38.388526	-3589.440369	-3053.137552
49.48	0.006328	0.059238	10.450840	38.934151	-3495.483753	-2951.530713
49.99	0.006342	0.059198	10.471806	41.161157	-3063.206530	-2490.277423
50.50	0.006325	0.059095	10.508354	40.128460	-2196.520239	-1686.217509
51.01	0.006352	0.058895	10.536717	41.878827	-1582.661936	-1062.219394
51.53	0.006328	0.058515	10.556931	41.682208	-1111.944231	-617.516862
52.04	0.006353	0.057943	10.563198	45.097739	-1046.022425	-479.633535
52.55	0.006336	0.057192	10.565259	45.745634	-1013.405637	-434.293371
53.06	0.006356	0.056321	10.566918	47.737709	-1021.013503	-397.807427
53.57	0.006341	0.055400	10.568406	46.019309	-947.146073	-365.078533
54.08	0.006360	0.054502	10.569248	44.103359	-883.620690	-346.552853
54.59	0.006336	0.053669	10.569500	39.177229	-764.410550	-341.008470
55.10	0.006362	0.052947	10.569748	36.654119	-700.605932	-335.548790
55.61	0.006335	0.052332	10.569646	33.149605	-622.285403	-337.792547
56.12	0.006345	0.051820	10.569325	32.561029	-616.144704	-344.859199
56.63	0.006322	0.051393	10.569463	30.574005	-567.205260	-341.807830
57.14	0.006338	0.051059	10.570123	30.574361	-551.987219	-327.283444
57.65	0.006318	0.050792	10.569930	27.826710	-493.188613	-331.529619
58.16	0.006334	0.050608	10.569767	26.603972	-468.823064	-335.136784
58.67	0.006314	0.050470	10.570511	23.767595	-386.349511	-318.747620
59.18	0.006335	0.050379	10.570649	23.386098	-374.386091	-315.712778
59.69	0.006322	0.050306	10.570668	21.262686	-325.088378	-315.314543
60.20	0.006339	0.050251	10.570632	22.878508	-363.101258	-316.094077
60.71	0.006323	0.050195	10.569984	21.704728	-351.018161	-330.342479
61.22	0.006336	0.050145	10.569760	22.770317	-380.730133	-335.286070
61.73	0.006319	0.050107	10.570024	20.842358	-330.251141	-329.469128
62.24	0.006333	0.050092	10.570338	20.971851	-325.982114	-322.553387
62.75	0.006307	0.050115	10.570085	19.339624	-294.262852	-328.137600
63.26	0.006328	0.050171	10.570244	20.939438	-327.410359	-324.627541
63.77	0.006307	0.050233	10.570841	20.959866	-314.118673	-311.499965
64.28	0.006349	0.050299	10.570807	23.908828	-382.774741	-312.236366
64.79	0.006441	0.050338	10.570171	23.920551	-397.725034	-326.240105
65.30	0.006749	0.050343	10.570254	25.645807	-435.523549	-324.412140
65.81	0.007367	0.050310	10.570385	23.926118	-392.909977	-321.524741
66.32	0.008467	0.050265	10.570539	24.128658	-394.023065	-318.139040
66.83	0.009910	0.050213	10.571181	21.758094	-324.641816	-304.010110
67.34	0.011450	0.050184	10.571509	22.704957	-338.871401	-296.792032
67.85	0.012575	0.050164	10.571338	21.754653	-320.959089	-300.572683
68.36	0.013066	0.050169	10.570735	23.623752	-377.876688	-313.823949
68.87	0.012827	0.050179	10.571170	22.677135	-346.068361	-304.268179
69.38	0.012109	0.050202	10.572100	23.220701	-337.113572	-283.790219
69.89	0.011095	0.050225	10.572075	21.453725	-297.022268	-284.347182
70.40	0.010105	0.050249	10.571205	22.151614	-333.146156	-303.481302
70.91	0.009201	0.050243	10.571260	20.848993	-301.904134	-302.283069
71.42	0.008528	0.050221	10.571885	22.151094	-317.470188	-288.539334
71.93	0.008001	0.050170	10.572010	21.262394	-294.121755	-285.781719
72.44	0.007654	0.050112	10.571998	22.710863	-327.749583	-286.053175
72.95	0.007375	0.050068	10.571908	21.379418	-299.167819	-288.025514
73.46	0.007201	0.050041	10.571586	21.902245	-318.624197	-295.104522
73.97	0.007041	0.050036	10.571566	20.264936	-281.387415	-295.537124
74.48	0.006951	0.050047	10.571310	21.317486	-311.542695	-301.189909
74.99	0.006848	0.050061	10.571507	20.409141	-286.067891	-296.835329
75.50	0.006808	0.050099	10.571811	22.349574	-323.742631	-290.164312
76.01	0.006747	0.050118	10.571559	21.912027	-319.468578	-295.695171
76.52	0.006727	0.050129	10.572033	23.449433	-343.934169	-285.273803
77.03	0.006690	0.050127	10.572726	22.016548	-294.978333	-270.038668
77.55	0.006688	0.050102	10.572326	22.707074	-320.090855	-278.830675
78.06	0.006662	0.050077	10.572279	21.204399	-286.586390	-279.867188
78.57	0.006669	0.050075	10.571948	22.157152	-316.141579	-287.138941
79.08	0.006641	0.050080	10.572405	21.546193	-291.540217	-277.087370
79.59	0.006649	0.050118	10.572495	23.243743	-328.547655	-275.113184
80.10	0.006628	0.050149	10.572258	22.629308	-319.869309	-280.326965
80.61	0.006640	0.050177	10.572492	23.661568	-338.220536	-275.165346
81.12	0.006627	0.050185	10.572689	22.000975	-295.455083	-270.835411
81.63	0.006647	0.050186	10.573637	23.055342	-297.873032	-249.989520
82.14	0.006643	0.050180	10.573411	21.839429	-275.093117	-254.959341
82.65	0.006666	0.050188	10.572493	23.266366	-329.111358	-275.154130
83.16	0.006659	0.050198	10.572625	22.800816	-315.357635	-272.257191
83.67	0.006681	0.050218	10.572419	24.431856	-357.644565	-276.779614
84.18	0.006670	0.050207	10.572762	23.533262	-329.045094	-269.230274
84.69	0.006680	0.050190	10.572610	24.418328	-352.940623	-272.589550
85.20	0.006656	0.050147	10.571893	22.537757	-326.168896	-288.346501
85.71	0.006679	0.050116	10.572534	23.707958	-338.319736	-274.241319
86.22	0.006659	0.050089	10.572928	22.108901	-292.427229	-265.577219
86.73	0.006663	0.050061	10.572248	22.823988	-324.580851	-280.546433
87.24	0.006598	0.050018	10.572092	21.411141	-295.662443	-283.985124
87.75	0.006557	0.049967	10.572695	21.883555	-292.612249	-270.701989
88.26	0.006455	0.049885	10.573050	20.228579	-246.346581	-262.909835
88.77	0.006417	0.049826	10.572548	21.126004	-278.580420	-273.951693
89.28	0.006426	0.049831	10.572190	19.704405	-254.108792	-281.824358
89.79	0.006464	0.049955	10.572472	22.152731	-303.968528	-275.624082
90.30	0.006503	0.050076	10.572165	22.437793	-317.607346	-282.374666
90.81	0.006526	0.050127	10.572291	24.140165	-353.873307	-279.587311
91.32	0.006529	0.050043	10.573044	22.610869	-301.303866	-263.022195
91.83	0.006560	0.049982	10.572984	23.285756	-318.238667	-264.356827
92.34	0.006564	0.049955	10.573265	22.168735	-286.034341	-258.165153
92.85	0.006564	0.049956	10.572873	23.363695	-322.589310	-266.795510
93.36	0.006564	0.049976	10.572321	22.302718	-310.903973	-278.946336
93.87	0.006570	0.050007	10.572493	23.261974	-329.005781	-275.149864
94.38	0.006590	0.050017	10.572531	22.372850	-307.676185	-274.327335
94.89	0.006593	0.050013	10.572271	23.259706	-334.071496	-280.031876
95.40	0.006599	0.049997	10.572666	22.365206	-304.377277	-271.348348
95.91	0.006606	0.050001	10.572991	23.395699	-320.592186	-264.187685
96.42	0.006606	0.050050	10.572639	22.965166	-318.814242	-271.945569
96.93	0.006606	0.050139	10.572800	25.079319	-363.756373	-268.392331
97.44	0.006606	0.050217	10.572856	24.442759	-347.819610	-267.168125
97.95	0.006606	0.050256	10.573109	25.922306	-376.054041	-261.612355
98.46	0.006606	0.050235	10.571383	23.350778	-356.661393	-299.580681
98.97	0.006606	0.050161	10.566989	17.677627	-327.389859	-396.232697
99.48	0.006606	0.050097	10.562439	0.999367	-48.413211	-496.346177
99.99	0.006606	0.050085	10.556808	-27.596706	479.984710	-620.233531
100.50	0.006606	0.050130	10.547880	-67.721877	1197.758211	-816.637078
101.01	0.006597	0.050228	10.538688	-106.705504	1883.151719	-1018.861369
101.52	0.006593	0.050343	10.532163	-137.418102	2439.650124	-1162.419412
102.03	0.006590	0.050458	10.527885	-154.993354	2745.571593	-1256.526741
102.54	0.006586	0.050571	10.525452	-161.485541	2838.903919	-1310.055689
103.06	0.006584	0.050696	10.524875	-157.746567	2739.526580	-1322.749728
103.57	0.006575	0.050861	10.525201	-146.397444	2485.793835	-1315.576197
104.08	0.006572	0.051033	10.525280	-128.139213	2067.308831	-1313.846537
104.59	0.006570	0.051189	10.525947	-106.816531	1591.852536	-1299.171143
105.10	0.006570	0.051301	10.528196	-83.512974	1107.289378	-1249.685651
105.61	0.006567	0.051353	10.531230	-63.098183	707.319447	-1182.939408
106.12	0.006567	0.051370	10.533864	-44.879594	348.685862	-1124.987663
106.63	0.006565	0.051366	10.535719	-31.561690	84.879330	-1084.191947
107.14	0.006565	0.051395	10.536900	-19.777252	-159.153636	-1058.206830
107.65	0.006564	0.051473	10.537925	-11.566359	-324.511547	-1035.643130
108.16	0.006563	0.051577	10.538254	-3.504923	-502.512525	-1028.421580
108.67	0.006563	0.051670	10.538641	1.464453	-607.969837	-1019.897457
109.18	0.006560	0.051752	10.539992	7.132723	-707.290101	-990.172463
109.69	0.006560	0.051788	10.539532	9.375024	-769.526399	-1000.302267
110.20	0.006560	0.051817	10.539233	12.732580	-853.695195	-1006.864192
110.71	0.006560	0.051838	10.539391	13.916246	-877.312267	-1003.401012
111.22	0.006560	0.051876	10.539454	16.110441	-926.375893	-1002.021675
111.73	0.006557	0.051917	10.540051	16.541766	-922.514607	-988.867103
112.24	0.006556	0.051950	10.540299	18.145451	-953.716255	-983.415881
112.75	0.006556	0.051964	10.540210	17.836086	-948.654314	-985.380488
113.26	0.006552	0.051969	10.540460	19.404078	-978.983442	-979.880725
113.77	0.006546	0.051958	10.540892	18.864571	-956.590868	-970.367136
114.28	0.006544	0.051957	10.540898	19.998689	-982.566627	-970.241932
114.79	0.006536	0.051970	10.540464	19.431920	-979.541847	-979.802025
115.30	0.006536	0.052002	10.540473	20.394552	-1001.481207	-979.592066
115.81	0.006536	0.052032	10.541099	19.522182	-966.971576	-965.829163
116.32	0.006536	0.052065	10.540657	19.941192	-986.808805	-975.551122
116.83	0.006533	0.052071	10.540199	18.732533	-969.548921	-985.627266
117.34	0.006532	0.052068	10.540184	19.105736	-978.469836	-985.941961
117.85	0.006532	0.052052	10.540255	17.801928	-946.820542	-984.381294
118.36	0.006529	0.052031	10.539835	18.281174	-967.539740	-993.621889
118.87	0.006528	0.052004	10.539324	17.515754	-961.706901	-1004.865435
119.38	0.006527	0.051985	10.540198	18.704882	-968.929410	-985.643478
119.89	0.006522	0.051957	10.540342	17.255441	-932.246696	-982.479293
120.40	0.006521	0.051938	10.539430	18.224455	-975.581351	-1002.538292
120.91	0.006521	0.051916	10.540083	17.839099	-951.660562	-988.181986
121.42	0.006521	0.051903	10.540065	21.262495	-1030.873314	-988.570565
121.93	0.006520	0.051885	10.540064	23.367139	-1079.340979	-988.589140
122.44	0.006519	0.051870	10.540637	28.990900	-1195.575635	-975.976242
122.95	0.006518	0.051853	10.540599	31.084745	-1244.668715	-976.828529
123.46	0.006516	0.051857	10.540142	30.548479	-1242.847737	-986.867126
123.97	0.006515	0.051873	10.540484	28.493640	-1187.658040	-979.342721
124.48	0.006513	0.051896	10.540560	26.461978	-1139.145891	-977.679126
124.99	0.006511	0.051914	10.540666	25.310157	-1110.181368	-975.342055
125.50	0.006509	0.051934	10.542528	25.259970	-1066.086517	-934.381800
126.01	0.006508	0.051938	10.546352	23.602417	-939.736336	-850.253205
126.52	0.006505	0.051951	10.551291	23.444165	-822.176907	-741.587652
127.03	0.006503	0.051941	10.558171	23.377880	-661.984362	-590.234696
127.54	0.006497	0.051902	10.565980	23.102557	-475.558048	-418.447388
128.05	0.006496	0.051812	10.573345	22.168838	-284.188253	-256.401898
128.56	0.006495	0.051668	10.620973	20.083437	862.253181	791.401990
129.08	0.006492	0.051476	10.631695	18.582458	1144.103380	1027.300996
129.59	0.006520	0.051249	10.631798	16.649225	1190.980688	1029.566457
130.10	0.006494	0.051009	10.632122	14.655138	1244.346968	1036.685529
130.61	0.006501	0.050782	10.638474	13.079530	1427.101221	1176.417633
131.12	0.006480	0.050563	10.642353	11.565127	1551.435200	1261.766343
131.63	0.006505	0.050369	10.635638	10.219397	1427.546538	1114.038015
132.14	0.006496	0.050198	10.633875	9.036142	1414.131792	1075.259015
132.65	0.006518	0.050043	10.641272	7.963859	1609.395746	1237.976507
133.16	0.006499	0.049906	10.643136	7.014650	1674.250379	1278.998390
133.67	0.006521	0.049796	10.634616	6.257841	1495.165978	1091.550425
134.18	0.006496	0.049706	10.630588	5.633827	1416.635220	1002.937085
134.69	0.006519	0.049647	10.635244	5.221262	1533.519809	1105.374555
135.20	0.006509	0.049613	10.633142	5.437552	1480.050396	1059.119226
135.71	0.006533	0.049594	10.626987	5.528010	1336.013756	923.708283
136.22	0.006542	0.049578	10.626444	5.578715	1322.330578	911.769223
136.73	0.006809	0.049575	10.631847	5.752310	1442.954250	1030.644662
137.24	0.008789	0.049564	10.630490	5.804145	1410.442405	1000.769678
137.75	0.018252	0.049570	10.622972	6.274430	1226.249293	835.393702
138.26	0.047831	0.049577	10.620117	6.481709	1155.612584	772.564540
138.77	0.117671	0.049591	10.624774	6.704737	1257.891250	875.026052
139.28	0.249903	0.049600	10.624424	6.770276	1248.307179	867.322914
139.79	0.448487	0.049608	10.617140	6.999809	1075.048675	707.090955
140.30	0.678942	0.049603	10.618732	6.963336	1112.601981	742.112354
140.81	0.877643	0.049592	10.624240	6.964829	1239.591727	863.281310
141.32	0.987777	0.049575	10.618510	6.844293	1110.222661	737.228684
141.83	0.990192	0.049577	10.614228	6.907015	1010.020692	643.022817
142.34	0.902589	0.049587	10.619741	7.058561	1133.683132	764.312773
142.85	0.761294	0.049614	10.627413	7.253887	1306.122664	933.092792
143.36	0.603381	0.049646	10.622766	7.587654	1191.259467	830.853247
143.87	0.456928	0.049681	10.618563	7.834070	1088.650104	738.384611
144.38	0.336071	0.049707	10.627368	8.018392	1287.483888	932.100621
144.89	0.243164	0.049702	10.630874	7.978520	1369.247287	1009.219594
145.40	0.174276	0.049656	10.625185	7.662338	1245.319806	884.061645
145.91	0.124103	0.049574	10.623120	7.283056	1206.426651	838.632769
146.42	0.087671	0.049456	10.632898	6.484850	1450.327552	1053.763613
146.93	0.061194	0.049343	10.637997	5.735560	1585.171657	1165.938759
147.44	0.042096	0.049238	10.630547	5.185950	1426.000597	1002.036036
147.95	0.028432	0.049159	10.629190	4.953894	1400.054770	972.190565
148.46	0.018692	0.049103	10.637739	4.688858	1603.320375	1160.266834
148.97	0.011845	0.049094	10.638899	4.996902	1622.978709	1185.783227
149.48	0.006804	0.049097	10.632611	5.021015	1477.397862	1047.442408
149.99	0.002923	0.049119	10.630064	5.197267	1414.605970	991.415135
150.50	-0.000225	0.049148	10.636831	5.400654	1565.984543	1140.282025
151.01	-0.002818	0.049165	10.637881	5.683896	1583.683854	1163.385064
151.52	-0.004931	0.049174	10.630518	5.782234	1411.607286	1001.399730
152.03	-0.006535	0.049172	10.629594	5.783281	1390.268320	981.067362
152.54	-0.007616	0.049166	10.636093	5.919565	1537.021455	1124.048524
153.05	-0.008103	0.049153	10.637806	5.856018	1577.979045	1161.722778
153.56	-0.008012	0.049142	10.623926	5.831313	1258.434032	856.364679
154.07	-0.007339	0.049145	10.566620	6.099073	-69.385420	-404.369416
154.59	-0.006176	0.049158	10.552177	6.245022	-405.831565	-722.102281
155.10	-0.004625	0.049208	10.546734	6.593469	-539.382246	-841.845542
155.61	-0.002830	0.049292	10.543697	7.182645	-622.992872	-908.664684
156.12	-0.000969	0.049423	10.542005	8.157968	-684.463243	-945.884905
156.63	0.000768	0.049578	10.541206	9.316758	-729.572501	-963.469481
157.14	0.002247	0.049745	10.540858	10.533075	-765.603515	-971.131065
157.65	0.003257	0.049906	10.540553	11.759314	-800.868147	-977.843727
158.16	0.003783	0.050059	10.540272	12.888911	-833.348529	-984.022589
158.67	0.003715	0.050179	10.539626	13.862585	-870.661930	-998.235550
159.18	0.003131	0.050285	10.539366	14.726169	-896.530400	-1003.948534
159.69	0.002034	0.050363	10.539688	15.377501	-904.096077	-996.863152
160.20	0.000604	0.050421	10.539805	15.846001	-912.182281	-994.289050
160.71	-0.001041	0.050444	10.539904	16.139717	-916.667274	-992.117718
161.22	-0.002697	0.050453	10.540021	16.325389	-918.229881	-989.531201
161.73	-0.004223	0.050446	10.539924	16.627004	-927.426303	-991.680691
162.24	-0.005449	0.050452	10.539429	16.680727	-940.068792	-1002.560733
162.75	-0.006273	0.050458	10.539264	16.780984	-946.193672	-1006.201798
163.26	-0.006618	0.050486	10.539561	17.132203	-947.408720	-999.648561
163.77	-0.006452	0.050533	10.539829	15.961867	-914.288347	-993.753786
164.28	-0.005822	0.050592	10.540373	17.799278	-944.039480	-981.786610
164.79	-0.004812	0.050646	10.540040	17.793295	-951.580033	-989.110964
165.30	-0.003524	0.050694	10.539829	19.274221	-990.555877	-993.771198
165.81	-0.002103	0.050713	10.540366	18.053506	-950.062138	-981.949182
166.32	-0.000687	0.050719	10.539858	18.556134	-973.353344	-993.129798
166.83	0.000569	0.050718	10.539433	17.365489	-955.740608	-1002.473772
167.34	0.001581	0.050720	10.539529	18.397986	-977.286704	-1000.354537
167.85	0.002211	0.050723	10.539499	17.211093	-950.665961	-1001.023352
168.36	0.002486	0.050741	10.540273	18.721377	-967.579353	-983.993458
168.87	0.002334	0.050749	10.540455	17.548036	-936.376952	-979.994202
169.38	0.001870	0.050761	10.540287	18.155109	-954.221978	-983.686223
169.89	0.001100	0.050767	10.540068	16.873195	-929.766480	-988.506990
170.40	0.000181	0.050773	10.539036	16.427881	-943.304596	-1011.199520
170.91	-0.000829	0.050756	10.539063	2.405262	-619.893882	-1010.613044
171.42	-0.001774	0.050733	10.538698	-74.511836	1142.296460	-1018.640102
171.93	-0.002607	0.050702	10.539103	-211.454741	4304.014576	-1009.731307
172.44	-0.003194	0.050671	10.539685	-290.050554	6126.677577	-996.935357
172.95	-0.003555	0.050622	10.540103	-318.825376	6798.716948	-987.727502
173.46	-0.003648	0.050501	10.540081	-329.257878	7038.359695	-988.213875
173.97	-0.003400	0.050157	10.540534	-333.385237	7143.809283	-978.255870
174.48	-0.003029	0.049360	10.541355	-335.175049	7203.953090	-960.186088
174.99	-0.002486	0.047791	10.540942	-336.009603	7213.642319	-969.269097
175.50	-0.001769	0.045210	10.539445	-336.406776	7188.247833	-1002.214393
176.01	-0.001149	0.041566	10.537179	-336.580185	7139.986928	-1052.058520
176.52	-0.000584	0.037037	10.535069	-336.623326	7092.311700	-1098.483488
177.03	-0.000034	0.031953	10.522035	-336.580441	6790.710588	-1385.240615
177.54	0.000262	0.026721	10.487641	-336.474609	5995.050729	-2141.900692
178.05	0.000408	0.021664	10.494594	-336.331689	6152.114878	-1988.938081
178.56	0.000477	0.017035	10.493294	-336.181824	6118.683583	-2017.537528
179.07	0.000258	0.012961	10.492694	-336.062255	6102.096717	-2030.734276
179.58	0.000096	0.009527	10.494358	-335.999912	6139.041634	-1994.123358
180.09	-0.000268	0.006726	10.495087	-336.021460	6156.350061	-1978.085933
180.61	-0.000568	0.004520	10.497308	-336.141951	6210.342141	-1929.228423
181.12	-0.000879	0.002840	10.499931	-336.377788	6276.267996	-1871.520062
181.63	-0.001161	0.001590	10.499926	-336.772618	6285.252352	-1871.619731
182.14	-0.001326	0.000665	10.499925	-337.429618	6300.333555	-1871.660482
182.65	-0.001442	-0.000013	10.499923	-338.530952	6325.651608	-1871.693169
183.16	-0.001459	-0.000516	10.499906	-340.490437	6370.375664	-1872.058166
183.67	-0.001428	-0.000879	10.499919	-344.407870	6460.847561	-1871.777782
184.18	-0.001365	-0.001149	10.499881	-356.474703	6737.740004	-1872.619041
184.69	-0.001239	-0.001333	10.499909	-67.914077	95.816852	-1872.004971
185.20	-0.001037	-0.001452	10.499894	-314.936853	5781.851012	-1872.334674
185.71	-0.001064	-0.001517	10.499912	-324.428974	6000.768400	-1871.941658
186.22	-0.000829	-0.001550	10.499919	-327.650678	6075.088324	-1871.791516
186.73	-0.000816	-0.001552	10.499908	-329.181765	6110.083792	-1872.029641
187.24	-0.000818	-0.001541	10.499903	-329.801833	6124.259209	-1872.123457
187.75	-0.000710	-0.001515	10.499899	-329.851205	6125.295611	-1872.218965
188.26	-0.000770	-0.001494	10.499898	-329.190126	6110.062403	-1872.233640
188.77	-0.000771	-0.001470	10.499918	-327.613802	6074.231309	-1871.799282
189.28	-0.000698	-0.001441	10.499917	-324.250207	5996.766587	-1871.833551
189.79	-0.000708	-0.001423	10.499918	-315.509040	5795.577279	-1871.805545
190.30	-0.000699	-0.001401	10.499908	-272.394892	4802.882118	-1872.017506
190.81	-0.000624	-0.001362	10.497046	-419.588952	8125.228687	-1934.985110
191.32	-0.000619	-0.001330	10.496796	-365.573861	6876.049212	-1940.489685
191.83	-0.000502	-0.001296	10.496563	-356.694559	6666.279784	-1945.613046
192.34	-0.000482	-0.001273	10.495237	-353.886511	6571.051591	-1974.790988
192.85	-0.000415	-0.001259	10.499903	-353.999382	6681.269426	-1872.132105
193.36	-0.000420	-0.001263	10.499908	-356.948531	6749.278774	-1872.016751
193.87	-0.000463	-0.001263	10.499892	-366.890788	6977.765553	-1872.379781
194.38	-0.000513	-0.001274	10.499887	-435.020843	8545.977673	-1872.492766
194.89	-0.000660	-0.001275	10.499903	-282.478451	5034.874374	-1872.139444
195.40	-0.000628	-0.001270	10.499893	-316.957508	5828.341114	-1872.358229
195.91	-0.000858	-0.001243	10.499893	-325.036267	6014.325856	-1872.344429
196.42	-0.000835	-0.001206	10.499895	-328.378284	6091.285781	-1872.317873
196.93	-0.000923	-0.001145	10.498385	-330.150670	6097.275891	-1905.522934
197.44	-0.001007	-0.001088	10.498969	-330.978950	6129.809936	-1892.676381
197.95	-0.000950	-0.001030	10.495810	-331.196241	6061.938634	-1962.190555
198.46	-0.000959	-0.000992	10.495160	-330.705091	6035.652435	-1976.480155
198.97	-0.000907	-0.000954	10.495116	-329.432014	6005.331045	-1977.448941
199.48	-0.000788	-0.000935	10.495108	-326.370401	5934.670401	-1977.623845
199.99	-0.000696	-0.000929	10.495094	-318.300797	5748.598939	-1977.921404
200.50	-0.000592	-0.000934	10.495096	-276.279751	4781.323755	-1977.888097
201.01	-0.000446	-0.000947	10.495102	-414.587464	7965.248508	-1977.765511
201.52	-0.000376	-0.000972	10.495091	-366.619792	6860.815730	-1977.988129
202.03	-0.000254	-0.000989	10.495101	-358.968502	6684.901135	-1977.782579
202.54	-0.000219	-0.001004	10.495091	-356.975156	6638.784164	-1978.002759
203.05	-0.000187	-0.001009	10.495094	-358.266598	6668.585615	-1977.933213
203.56	-0.000221	-0.001007	10.495089	-363.119896	6780.201552	-1978.033690
204.07	-0.000295	-0.001003	10.495086	-380.191150	7173.104220	-1978.102149
204.58	-0.000364	-0.000994	10.495079	-588.956747	11978.659661	-1978.252082
205.09	-0.000520	-0.000974	10.495080	-284.724467	4975.349605	-1978.239729
205.60	-0.000546	-0.000964	10.495085	-313.657461	5641.481364	-1978.140396
206.12	-0.000721	-0.000955	10.495074	-321.740477	5827.317020	-1978.362268
206.63	-0.000739	-0.000968	10.495077	-324.641226	5894.140821	-1978.314999
207.14	-0.000798	-0.000974	10.495071	-325.963160	5924.433331	-1978.446614
207.65	-0.000836	-0.000979	10.495071	-326.229732	5930.568369	-1978.447895
208.16	-0.000797	-0.000975	10.495083	-325.386414	5911.445072	-1978.171644
208.67	-0.000773	-0.000974	10.495108	-323.796326	5875.412411	-1977.627342
209.18	-0.000701	-0.000977	10.495093	-320.526276	5799.790312	-1977.958020
209.69	-0.000627	-0.000983	10.498239	-313.076246	5700.842862	-1908.752497
210.20	-0.000541	-0.000999	10.499881	-298.732488	5408.528933	-1872.623845
210.71	-0.000458	-0.001024	10.497265	-258.298460	4417.434805	-1930.160200
211.22	-0.000379	-0.001047	10.497889	1066.079625	-26054.920757	-1916.447888
211.73	-0.000350	-0.001063	10.497321	-524.055704	10536.365313	-1928.929977
212.24	-0.000267	-0.001094	10.497673	-460.990999	9092.742224	-1921.198723
212.75	-0.000276	-0.001102	10.495510	-444.102905	8654.095697	-1968.787513
213.26	-0.000283	-0.001104	10.495119	-534.034191	10715.266654	-1977.388369
213.77	-0.000283	-0.001090	10.495991	-857.909659	18190.897505	-1958.187821
214.28	-0.000358	-0.001055	10.496424	-158.738314	2106.177835	-1948.681655
214.79	-0.000397	-0.001024	10.495881	-256.092148	4334.722106	-1960.612805
215.30	-0.000453	-0.000988	10.496452	-287.095828	5061.587939	-1948.048229
215.81	-0.000510	-0.000954	10.495269	-300.949951	5353.210020	-1974.085146
216.32	-0.000550	-0.000930	10.495106	-306.422864	5475.438551	-1977.668081
216.83	-0.000586	-0.000920	10.495120	-309.338758	5542.893747	-1977.351084
217.34	-0.000610	-0.000923	10.495107	-309.581114	5548.159945	-1977.649415
217.85	-0.000603	-0.000943	10.495105	-308.289354	5518.379421	-1977.692015
218.36	-0.000605	-0.000970	10.497917	-306.011329	5530.795808	-1915.825796
218.87	-0.000572	-0.000989	10.497824	-301.999035	5436.284435	-1917.876440
219.38	-0.000542	-0.000999	10.500105	-294.469751	5315.580409	-1867.684319
219.89	-0.000499	-0.000991	10.500084	-295.900289	5348.029235	-1868.143784
220.40	-0.000455	-0.000960	10.503559	-285.544249	5189.769501	-1791.704737
220.91	-0.000424	-0.000899	10.502774	-288.101059	5230.520893	-1808.975660
221.42	-0.000393	-0.000834	10.505078	-291.858707	5370.172667	-1758.273687
221.93	-0.000330	-0.000771	10.505088	-288.813754	5300.304685	-1758.058316
222.44	-0.000358	-0.000712	10.505107	-296.175814	5470.201420	-1757.653245
222.95	-0.000324	-0.000665	10.505092	-299.085727	5536.849002	-1757.975302
223.46	-0.000309	-0.000623	10.505086	-297.675494	5504.254061	-1758.101081
223.97	-0.000384	-0.000603	10.505085	-299.547240	5547.309739	-1758.130911
224.48	-0.000337	-0.000601	10.505093	-299.227666	5540.131761	-1757.960646
224.99	-0.000393	-0.000605	10.505093	-294.129879	5422.794905	-1757.948753
225.50	-0.000412	-0.000622	10.505078	-292.534778	5385.714023	-1758.294275
226.01	-0.000422	-0.000653	10.505070	-278.984256	5073.623144	-1758.449280
226.52	-0.000439	-0.000679	10.505070	-274.000426	4958.895124	-1758.451145
227.03	-0.000471	-0.000691	10.505068	-262.296876	4689.429510	-1758.502559
227.54	-0.000456	-0.000680	10.505065	-264.507267	4740.240250	-1758.570954
228.05	-0.000475	-0.000654	10.505067	-273.910015	4956.741446	-1758.520240
228.56	-0.000466	-0.000621	10.505069	-283.208309	5170.828490	-1758.478755
229.07	-0.000447	-0.000589	10.505072	-297.669017	5503.777026	-1758.413914
229.58	-0.000460	-0.000566	10.505077	-297.225511	5493.684815	-1758.302166
230.09	-0.000406	-0.000561	10.505071	-308.602841	5755.444203	-1758.438430
230.60	-0.000412	-0.000567	10.505095	-307.433201	5729.080634	-1757.903152
231.11	-0.000370	-0.000596	10.505109	-308.960572	5764.545053	-1757.612357
231.62	-0.000368	-0.000619	10.505098	-310.420336	5797.898914	-1757.850254
232.14	-0.000335	-0.000629	10.505104	-308.253546	5748.157919	-1757.718850
232.65	-0.000334	-0.000617	10.505088	-309.059559	5766.358244	-1758.056354
233.16	-0.000328	-0.000594	10.505089	-308.552531	5754.699612	-1758.043963
233.67	-0.000302	-0.000575	10.505094	-305.088559	5675.079802	-1757.929833
234.18	-0.000350	-0.000573	10.505093	-300.838202	5577.223454	-1757.943748
234.69	-0.000318	-0.000587	10.505088	-293.108224	5399.153485	-1758.066345
235.20	-0.000350	-0.000611	10.505080	-275.849367	5001.684045	-1758.234678
235.71	-0.000364	-0.000639	10.505080	-260.676398	4652.399959	-1758.241859
236.22	-0.000368	-0.000660	10.505083	-219.699832	3709.203226	-1758.175270
236.73	-0.000372	-0.000671	10.505084	-198.575484	3222.953235	-1758.151165
237.24	-0.000388	-0.000680	10.505083	-172.201135	2615.807844	-1758.167277
237.75	-0.000373	-0.000682	10.505085	-197.262592	3192.754340	-1758.128819
238.26	-0.000382	-0.000673	10.505092	-234.151387	4042.071819	-1757.985704
238.77	-0.000387	-0.000671	10.505126	-254.136911	4502.936910	-1757.217646
239.28	-0.000364	-0.000671	10.505105	-279.454153	5085.233407	-1757.692447
239.79	-0.000380	-0.000687	10.511860	-280.942240	5275.272162	-1609.089779
240.30	-0.000347	-0.000717	10.512543	-293.037831	5569.472745	-1594.052220
240.81	-0.000362	-0.000751	10.514921	-292.039564	5601.341296	-1541.732134
241.32	-0.000337	-0.000782	10.514919	-293.679958	5639.048513	-1541.783713
241.83	-0.000336	-0.000790	10.513363	-295.308636	5640.644454	-1576.024774
242.34	-0.000320	-0.000768	10.513114	-294.392370	5613.811061	-1581.501403
242.85	-0.000313	-0.000712	10.514868	-296.381786	5700.072365	-1542.901025
243.36	-0.000320	-0.000620	10.511592	-298.014227	5662.096308	-1614.972667
243.87	-0.000304	-0.000531	10.510095	-299.777650	5668.151454	-1647.918869
244.38	-0.000332	-0.000454	10.510088	-300.121700	5675.909434	-1648.073338
244.89	-0.000307	-0.000424	10.510077	-296.183068	5584.991567	-1648.313638
245.40	-0.000329	-0.000423	10.510070	-287.460665	5384.061549	-1648.450312
245.91	-0.000327	-0.000449	10.510070	-279.829151	5208.375196	-1648.461300
246.42	-0.000333	-0.000500	10.510073	-252.703709	4584.038033	-1648.383810
246.93	-0.000328	-0.000544	10.510079	-248.530003	4488.093004	-1648.257650
247.44	-0.000327	-0.000580	10.510087	-244.718824	4400.530640	-1648.095802
247.95	-0.000332	-0.000596	10.510078	-242.062255	4339.169131	-1648.294396
248.46	-0.000325	-0.000602	10.510062	-261.576209	4788.020695	-1648.631101
248.97	-0.000317	-0.000610	10.510061	-268.149581	4939.320147	-1648.647631
249.48	-0.000314	-0.000618	10.510062	-276.119444	5122.795024	-1648.636796
249.99	-0.000320	-0.000617	10.510066	-283.160088	5284.965591	-1648.543945
250.50	-0.000306	-0.000612	10.510076	-287.635133	5388.196315	-1648.337197
251.01	-0.000316	-0.000608	10.510087	-291.087282	5467.930044	-1648.083039
251.52	-0.000314	-0.000613	10.510078	-292.552187	5501.444803	-1648.280363
252.03	-0.000301	-0.000623	10.510074	-291.237568	5471.091493	-1648.367393
252.54	-0.000308	-0.000636	10.510074	-290.461924	5453.238542	-1648.365389
253.05	-0.000290	-0.000667	10.510073	-285.161454	5331.190664	-1648.396728
253.56	-0.000305	-0.000698	10.510072	-279.626552	5203.770266	-1648.405177
254.07	-0.000298	-0.000721	10.510076	-272.431642	5038.216575	-1648.337766
254.58	-0.000296	-0.000737	10.510070	-264.419511	4853.650917	-1648.460950
255.09	-0.000301	-0.000738	10.510067	-258.852909	4725.443725	-1648.523836
255.60	-0.000296	-0.000724	10.510068	-254.210215	4618.599160	-1648.496486
256.11	-0.000305	-0.000702	10.510069	-241.160371	4318.220389	-1648.473423
256.62	-0.000305	-0.000684	10.510069	-251.095056	4546.898202	-1648.487951
257.13	-0.000304	-0.000670	10.510068	-243.810445	4379.194917	-1648.501337
257.65	-0.000306	-0.000666	10.510070	-240.025698	4292.119663	-1648.455239
258.16	-0.000303	-0.000666	10.510076	-259.071547	4730.692487	-1648.317991
258.67	-0.000289	-0.000676	10.510086	-246.694714	4445.998717	-1648.111277
259.18	-0.000305	-0.000681	10.510077	-259.333815	4736.737158	-1648.310975
259.69	-0.000289	-0.000689	10.510072	-261.999098	4797.980032	-1648.416882
260.20	-0.000284	-0.000700	10.510072	-262.635490	4812.620375	-1648.425631
260.71	-0.000303	-0.000698	10.510069	-265.769864	4884.718428	-1648.477314
261.22	-0.000271	-0.000684	10.510068	-272.056856	5029.414925	-1648.503929
261.73	-0.000284	-0.000661	10.510067	-272.243152	5033.672760	-1648.533153
262.24	-0.000282	-0.000619	10.510068	-278.986366	5188.932075	-1648.501832
262.75	-0.000279	-0.000575	10.510071	-282.055142	5259.644839	-1648.434501
263.26	-0.000271	-0.000537	10.510079	-283.613486	5295.705996	-1648.254576
263.77	-0.000282	-0.000512	10.510080	-287.555804	5386.472829	-1648.239299
264.28	-0.000266	-0.000495	10.510074	-282.730149	5275.254770	-1648.366282
264.79	-0.000273	-0.000500	10.510076	-282.909318	5279.420398	-1648.326961
265.30	-0.000269	-0.000515	10.510070	-274.840621	5093.531637	-1648.470166
265.81	-0.000267	-0.000540	10.510072	-271.503770	5016.771930	-1648.419172
266.32	-0.000275	-0.000577	10.510070	-259.774892	4746.731966	-1648.462282
266.83	-0.000257	-0.000604	10.510068	-255.734619	4653.687649	-1648.499119
267.34	-0.000267	-0.000624	10.510067	-251.543300	4557.166587	-1648.535684
267.85	-0.000262	-0.000624	10.510071	-244.003886	4383.709872	-1648.442188
268.36	-0.000264	-0.000622	10.510069	-257.320287	4690.213697	-1648.475754
268.87	-0.000267	-0.000615	10.510072	-250.023951	4522.307880	-1648.424850
269.38	-0.000269	-0.000600	10.510071	-260.049643	4753.085686	-1648.434589
269.89	-0.000268	-0.000595	10.510069	-263.726382	4837.670446	-1648.484675
270.40	-0.000254	-0.000593	10.510071	-264.760139	4861.522179	-1648.432208
270.91	-0.000267	-0.000597	10.506151	-265.199689	4781.224111	-1734.680828
271.42	-0.000249	-0.000592	10.505085	-268.689551	4836.984083	-1758.123491
271.93	-0.000254	-0.000593	10.505088	-265.725807	4768.823624	-1758.062519
272.44	-0.000246	-0.000582	10.505089	-268.723276	4837.850124	-1758.037925
272.95	-0.000245	-0.000554	10.505119	-273.016558	4937.377637	-1757.372446
273.46	-0.000238	-0.000527	10.505100	-272.282499	4920.039308	-1757.792677
273.97	-0.000238	-0.000504	10.505099	-277.785019	5046.683095	-1757.813992
274.48	-0.000231	-0.000485	10.505093	-274.600773	4973.231988	-1757.957886
274.99	-0.000232	-0.000478	10.505087	-278.179857	5055.494097	-1758.079205
275.50	-0.000232	-0.000480	10.505098	-273.425218	4946.282910	-1757.851257
276.01	-0.000231	-0.000496	10.569142	-270.978562	6367.024737	-348.873336
276.52	-0.000239	-0.000510	10.572863	-265.684600	6330.963166	-267.024818
277.03	-0.000235	-0.000527	10.623155	-261.454859	7393.495098	839.408845
277.54	-0.000241	-0.000549	10.588274	-260.007847	6555.718024	72.023357
278.05	-0.000236	-0.000568	10.560130	-253.024891	5745.891479	-547.138583
278.56	-0.000239	-0.000584	10.555111	-258.121835	5747.476179	-657.548533
279.07	-0.000228	-0.000600	10.615364	-249.216944	6932.088965	667.998291
279.58	-0.000226	-0.000614	10.614153	-253.141495	6994.509909	641.364424
280.09	-0.000235	-0.000626	10.612687	-251.068357	6912.974630	609.110657
280.60	-0.000223	-0.000636	10.612560	-251.184427	6912.715729	606.314954
281.11	-0.000232	-0.000637	10.615646	-249.728909	6950.377469	674.201757
281.62	-0.000220	-0.000639	10.614263	-249.055345	6902.976716	643.776452
282.13	-0.000218	-0.000634	10.615376	-251.351801	6981.514509	668.267160
282.64	-0.000207	-0.000633	10.618081	-249.344888	6997.697158	727.772805
283.15	-0.000212	-0.000630	10.578339	-247.692967	6043.101777	-146.546750
283.67	-0.000216	-0.000627	10.575588	-247.209453	5968.524332	-207.069290
284.18	-0.000216	-0.000612	10.558869	-251.084329	5672.136141	-574.882216
284.69	-0.000219	-0.000584	10.581762	-251.305373	6205.217902	-71.226620
285.20	-0.000217	-0.000533	10.595031	-261.249890	6740.156194	220.686373
285.71	-0.000216	-0.000490	10.638419	-267.204124	7877.870126	1175.211009
286.22	-0.000216	-0.000464	10.612827	-267.987527	7305.687280	612.200493
286.73	-0.000209	-0.000459	10.612850	-270.381867	7361.337930	612.709641
287.24	-0.000218	-0.000476	10.613471	-263.525614	7217.816061	626.356908
287.75	-0.000216	-0.000488	10.613553	-265.358640	7261.906564	628.164442
288.26	-0.000222	-0.000497	10.616013	-262.124390	7244.192295	682.286208
288.77	-0.000210	-0.000480	10.617065	-264.321768	7319.038554	705.431157
289.28	-0.000216	-0.000442	10.616407	-271.179232	7461.714565	690.950429
289.79	-0.000202	-0.000381	10.615009	-279.665234	7624.819100	660.196217
290.30	-0.000213	-0.000327	10.613893	-289.433705	7823.952460	635.648891
290.81	-0.000200	-0.000291	10.613745	-294.860440	7945.463685	632.395735
291.32	-0.000208	-0.000285	10.612979	-295.683476	7946.733263	615.534115
291.83	-0.000206	-0.000311	10.614145	-292.097583	7891.080661	641.187885
292.34	-0.000204	-0.000360	10.613474	-284.249289	7694.932361	626.418316
292.85	-0.000200	-0.000407	10.612286	-274.196474	7436.124354	600.285492
293.36	-0.000204	-0.000453	10.594829	-270.569278	6950.029484	216.245154
293.87	-0.000199	-0.000472	10.600142	-263.778762	6916.247421	333.130287
294.38	-0.000206	-0.000478	10.600558	-261.517359	6873.768901	342.266977
294.89	-0.000201	-0.000458	10.590987	-269.378026	6833.996864	131.719220
295.40	-0.000205	-0.000435	10.584140	-265.069282	6576.892801	-18.919791
295.91	-0.000213	-0.000401	10.574886	-273.916845	6567.140580	-222.502295
296.42	-0.000214	-0.000387	10.579707	-275.732940	6720.128897	-116.444827
296.93	-0.000202	-0.000371	10.562970	-277.653297	6378.329165	-484.657613
297.44	-0.000218	-0.000354	10.587991	-278.671115	6978.815031	65.799086
297.95	-0.000199	-0.000372	10.603536	-278.237708	7327.351458	407.786745
298.46	-0.000205	-0.000389	10.595589	-271.710295	6993.811053	232.953508
298.97	-0.000203	-0.000430	10.598733	-266.450549	6945.250879	302.128195
299.48	-0.000199	-0.000469	10.608688	-258.698071	6996.383241	521.136941
299.99	-0.000191	-0.000500	10.620315	-252.675664	7125.892355	776.919783
300.50	-0.000199	-0.000512	10.614526	-253.272590	7006.142395	649.582050
301.01	-0.000190	-0.000516	10.613457	-246.575340	6827.319100	626.063634
301.52	-0.000191	-0.000502	10.612928	-252.500396	6951.493444	614.408414
302.03	-0.000190	-0.000506	10.615931	-250.111096	6965.763921	680.486700
302.54	-0.000192	-0.000507	10.616616	-250.706787	6995.266080	695.548430
303.05	-0.000197	-0.000510	10.615885	-251.188539	6989.502265	679.471719
303.56	-0.000195	-0.000498	10.616420	-253.964963	7065.762918	691.250846
304.07	-0.000198	-0.000469	10.617135	-258.415765	7184.688241	706.961079
304.58	-0.000193	-0.000429	10.615554	-261.140230	7210.946514	672.183637
305.09	-0.000193	-0.000402	10.613072	-269.449311	7344.980458	617.583755
305.60	-0.000190	-0.000376	10.614432	-269.498895	7377.485116	647.501318
306.11	-0.000191	-0.000375	10.615497	-270.905257	7434.430904	670.940504
306.62	-0.000187	-0.000391	10.613285	-265.749305	7264.720318	622.270039
307.13	-0.000173	-0.000408	10.613433	-262.388635	7190.772049	625.525918
307.64	-0.000187	-0.000431	10.615169	-255.721020	7077.320340	663.715025
308.15	-0.000175	-0.000431	10.616037	-255.519584	7092.708906	682.817514
308.66	-0.000174	-0.000436	10.616395	-251.987971	7019.667068	690.691689
309.18	-0.000173	-0.000436	10.616637	-252.780578	7043.499011	696.020599
309.69	-0.000177	-0.000432	10.614876	-253.370412	7016.459986	657.276019
310.20	-0.000175	-0.000438	10.614159	-251.622203	6959.680354	641.501815
310.71	-0.000183	-0.000454	10.594232	-251.625623	6500.184556	203.111337
311.22	-0.000177	-0.000477	10.612200	-245.597208	6775.807303	598.404642
311.73	-0.000183	-0.000489	10.612640	-245.926481	6793.535896	608.085678
312.24	-0.000180	-0.000490	10.617132	-243.657282	6844.900878	706.911352
312.75	-0.000187	-0.000474	10.617500	-247.913618	6951.349937	714.990607
313.26	-0.000184	-0.000463	10.617685	-245.527894	6900.712376	719.074247
313.77	-0.000185	-0.000472	10.617039	-243.008260	6827.809905	704.859787
314.28	-0.000179	-0.000496	10.612616	-242.111011	6705.152426	607.558481
314.79	-0.000182	-0.000537	10.612064	-228.472070	6378.450195	595.407185
315.30	-0.000179	-0.000582	10.613922	-223.592595	6308.973009	636.278846
315.81	-0.000179	-0.000623	10.614931	-208.896286	5993.949690	658.486398
316.32	-0.000170	-0.000650	10.615077	-202.256697	5844.469496	661.692348
316.83	-0.000175	-0.000670	10.614657	-190.703965	5568.846769	652.455906
317.34	-0.000169	-0.000677	10.613257	-192.692361	5582.323306	621.648893
317.85	-0.000166	-0.000676	10.612792	-195.405908	5634.063235	611.418285
318.36	-0.000155	-0.000686	10.612896	-193.041024	5582.027387	613.710492
318.87	-0.000153	-0.000689	10.612898	-194.736231	5621.099693	613.757430
319.38	-0.000152	-0.000688	10.612987	-193.796035	5601.515078	615.720925
319.89	-0.000154	-0.000673	10.613820	-195.900134	5669.146624	634.032004
320.40	-0.000156	-0.000643	10.613447	-202.597185	5814.727084	625.844288
320.91	-0.000162	-0.000614	10.616295	-204.191204	5917.094749	688.490943
321.42	-0.000159	-0.000585	10.614868	-215.949715	6154.856896	657.093408
321.93	-0.000160	-0.000574	10.614714	-217.139225	6178.679160	653.697637
322.44	-0.000160	-0.000568	10.616463	-221.758828	6325.373010	692.189781
322.95	-0.000158	-0.000562	10.616198	-216.161254	6190.395722	686.348976
323.46	-0.000160	-0.000554	10.614417	-220.972987	6260.090220	647.172141
323.97	-0.000166	-0.000539	10.615632	-216.202214	6178.301484	673.912800
324.48	-0.000163	-0.000507	10.616985	-229.905846	6524.941106	703.661940
324.99	-0.000162	-0.000479	10.627949	-228.959223	6756.026261	944.881728
325.50	-0.000159	-0.000444	10.628091	-240.713863	7029.879427	947.996588
326.01	-0.000162	-0.000430	10.628275	-243.168988	7090.643362	952.048594
326.52	-0.000156	-0.000413	10.614786	-246.222161	6849.828562	655.290826
327.03	-0.000155	-0.000411	10.616097	-244.396677	6838.049729	684.139954
327.54	-0.000152	-0.000412	10.615435	-246.079224	6861.501422	669.564314
328.05	-0.000159	-0.000420	10.614756	-242.020242	6752.421845	654.642190
328.56	-0.000151	-0.000424	10.614273	-244.245058	6792.494639	644.014061
329.07	-0.000156	-0.000443	10.615146	-237.855006	6665.533100	663.221188
329.58	-0.000159	-0.000458	10.614245	-236.208689	6606.844744	643.388825
330.09	-0.000153	-0.000462	10.614863	-239.253217	6691.176724	656.980060
330.60	-0.000162	-0.000467	10.614866	-238.874851	6682.541536	657.051297
331.11	-0.000159	-0.000450	10.586510	-236.577572	5975.689571	33.226567
331.62	-0.000153	-0.000415	10.568928	-251.406220	5911.539041	-353.582836
332.13	-0.000153	-0.000389	10.588004	-248.971739	6295.452044	66.091449
332.64	-0.000150	-0.000362	10.585617	-257.675686	6440.754477	13.569964
333.15	-0.000148	-0.000356	10.559787	-258.310369	5859.644888	-554.690168
333.66	-0.000141	-0.000364	10.557546	-254.837460	5728.016532	-603.991008
334.17	-0.000148	-0.000389	10.552369	-245.129148	5385.138301	-717.883665
334.69	-0.000143	-0.000422	10.541876	-241.442900	5058.292280	-948.719025
335.20	-0.000150	-0.000451	10.519685	-229.694746	4276.056375	-1436.925175
335.71	-0.000149	-0.000474	10.527500	-224.944422	4346.945304	-1264.993543
336.22	-0.000156	-0.000492	10.516327	-220.027734	3976.062894	-1510.816741
336.73	-0.000150	-0.000500	10.537227	-219.708221	4450.740111	-1051.003677
337.24	-0.000157	-0.000486	10.580131	-225.879598	5582.307759	-107.110155
