Length [m]	OTDR [V]	Brillouin intensity [V]	Fitted Frequency [GHz]	Temperature [”]	Compensated Strain [レュ]	Uncompensated Strain [レュ]
0.51	0.006990	0.039627	10.503407	-150.715943	2034.222660	-1795.047293
1.02	0.007103	0.043110	10.475318	-128.374313	872.115796	-2412.996720
1.53	0.007076	0.046097	10.455471	-91.044253	-444.955742	-2849.643264
2.04	0.007114	0.048534	10.443670	-52.268638	-1609.722349	-3109.263044
2.55	0.007091	0.050555	10.436604	-26.797882	-2359.018547	-3264.719160
3.06	0.007016	0.052178	10.431974	-17.510657	-2679.580680	-3366.570825
3.57	0.006966	0.053579	10.430283	-21.187595	-2633.943393	-3403.777491
4.08	0.006928	0.054716	10.430129	-25.232867	-2544.371082	-3407.162385
4.59	0.006937	0.055725	10.429194	-13.799512	-2829.115342	-3427.721277
5.10	0.006953	0.056507	10.429894	7.276048	-3298.146070	-3412.342937
5.61	0.007001	0.057150	10.430315	26.911016	-3740.418353	-3403.072932
6.12	0.007004	0.057549	10.429866	32.287902	-3874.540133	-3412.943648
6.63	0.006994	0.057823	10.429733	25.274757	-3716.167492	-3415.869803
7.14	0.006953	0.057942	10.429560	9.856420	-3365.235066	-3419.678191
7.65	0.006939	0.058064	10.429578	-0.771846	-3120.167758	-3419.288762
8.16	0.006927	0.058145	10.429937	2.767591	-3193.369815	-3411.395611
8.67	0.006972	0.058289	10.430242	19.957774	-3582.033717	-3404.672263
9.18	0.007038	0.058380	10.429616	38.868475	-4031.785305	-3418.440667
9.69	0.007073	0.058456	10.428305	52.111446	-4366.888568	-3447.300668
10.20	0.007052	0.058383	10.427835	52.075940	-4376.892181	-3457.622836
10.71	0.007010	0.058304	10.428860	45.073715	-4192.063023	-3435.072202
11.22	0.006937	0.058172	10.429383	38.590028	-4030.748122	-3423.565582
11.73	0.006908	0.058120	10.429231	42.376503	-4121.430600	-3426.922496
12.24	0.006904	0.058078	10.428418	51.683830	-4354.428769	-3444.805050
12.75	0.006957	0.058126	10.427309	58.580311	-4538.750476	-3469.193596
13.26	0.006996	0.058107	10.427547	55.959348	-4472.942533	-3463.971660
13.77	0.007007	0.058078	10.427890	48.638525	-4296.511799	-3456.428282
14.28	0.006956	0.057969	10.428590	37.524736	-4024.513780	-3441.010888
14.79	0.006926	0.057914	10.429501	31.151325	-3856.799459	-3420.978335
15.30	0.006879	0.057870	10.429455	27.000277	-3762.304680	-3421.990356
15.81	0.006867	0.057955	10.429002	26.209943	-3754.559414	-3431.956715
16.32	0.006874	0.058036	10.428776	25.196445	-3736.438310	-3436.925869
16.83	0.006869	0.058153	10.428370	22.774974	-3690.067449	-3445.864515
17.34	0.006793	0.058162	10.429085	20.475963	-3620.658719	-3430.138161
17.85	0.006690	0.058143	10.429987	24.178323	-3685.063918	-3410.276071
18.36	0.006552	0.058035	10.429653	27.942594	-3779.432971	-3417.637194
18.87	0.006430	0.057966	10.429022	33.238951	-3915.910206	-3431.523095
19.38	0.006342	0.057892	10.429613	34.288190	-3926.419610	-3418.508280
19.89	0.006307	0.057911	10.430767	35.894271	-3936.792673	-3393.135969
20.40	0.006285	0.057905	10.430852	35.485849	-3925.418171	-3391.254139
20.91	0.006272	0.057923	10.430825	35.779796	-3932.813706	-3391.854111
21.42	0.006218	0.057856	10.431524	43.778117	-4100.812210	-3376.477056
21.93	0.006173	0.057807	10.432187	47.348821	-4167.705304	-3361.879167
22.44	0.006122	0.057717	10.432676	47.688576	-4164.252093	-3351.124612
22.95	0.006102	0.057697	10.433180	46.316026	-4121.045106	-3340.048481
23.46	0.006084	0.057678	10.433347	37.337403	-3910.496389	-3336.362697
23.97	0.006133	0.057755	10.433290	36.619239	-3895.287661	-3337.624866
24.48	0.006142	0.057791	10.432863	33.094840	-3824.000989	-3347.014907
24.99	0.006170	0.057873	10.432061	33.911621	-3861.310085	-3364.668898
25.50	0.006165	0.057870	10.431932	35.222045	-3894.435200	-3367.492075
26.02	0.006146	0.057880	10.432737	38.144172	-3943.136488	-3349.782756
26.53	0.006128	0.057837	10.433035	34.011976	-3841.155143	-3343.239344
27.04	0.006129	0.057870	10.432935	33.848248	-3839.690139	-3345.437095
27.55	0.006131	0.057862	10.432830	30.316179	-3760.805911	-3347.748204
28.06	0.006162	0.057908	10.432879	28.323433	-3713.795334	-3346.662438
28.57	0.006181	0.057872	10.433040	33.762407	-3835.289002	-3343.123775
29.08	0.006185	0.057842	10.433001	35.870341	-3884.697826	-3343.967884
29.59	0.006169	0.057742	10.432352	38.754719	-3966.083200	-3358.265004
30.10	0.006144	0.057695	10.432155	42.365176	-4053.717885	-3362.579717
30.61	0.006102	0.057636	10.432189	37.122624	-3932.260030	-3361.839389
31.12	0.006113	0.057677	10.433045	40.402426	-3988.020229	-3343.009569
31.63	0.006111	0.057676	10.433593	39.258143	-3949.032487	-3330.945766
32.14	0.006145	0.057724	10.434102	34.402251	-3825.520992	-3319.755971
32.65	0.006149	0.057675	10.434941	37.457264	-3876.491583	-3301.293355
33.16	0.006145	0.057644	10.434936	34.198404	-3801.600427	-3301.414211
33.67	0.006130	0.057567	10.435932	35.259012	-3803.030218	-3279.488653
34.18	0.006120	0.057541	10.436704	33.239662	-3738.757657	-3262.520764
34.69	0.006105	0.057533	10.437029	36.409520	-3804.216739	-3255.356968
35.20	0.006139	0.057574	10.437475	30.678416	-3662.018061	-3245.559774
35.71	0.006147	0.057636	10.438004	32.510826	-3691.984913	-3233.908209
36.22	0.006180	0.057690	10.438208	30.886213	-3649.880703	-3229.418965
36.73	0.006177	0.057712	10.438438	32.240512	-3675.747117	-3224.354602
37.24	0.006164	0.057702	10.438261	36.152194	-3769.875007	-3228.248728
37.75	0.006139	0.057663	10.437702	38.601583	-3839.155910	-3240.551065
38.26	0.006130	0.057621	10.437272	40.368568	-3889.744328	-3250.007150
38.77	0.006125	0.057575	10.436995	39.563255	-3877.606710	-3256.112535
39.28	0.006145	0.057572	10.437561	38.700977	-3844.708164	-3243.664845
39.79	0.006150	0.057541	10.437924	35.865898	-3771.075435	-3235.680489
40.30	0.006161	0.057550	10.437937	35.762464	-3768.382478	-3235.382905
40.81	0.006146	0.057506	10.438641	36.055675	-3758.908218	-3219.906875
41.32	0.006135	0.057471	10.439199	38.027587	-3791.420327	-3207.619978
41.83	0.006116	0.057394	10.439850	38.283271	-3782.294937	-3193.300759
42.34	0.006123	0.057366	10.440055	38.755438	-3788.439976	-3188.794436
42.85	0.006124	0.057304	10.440602	35.918210	-3710.513968	-3176.761888
43.36	0.006143	0.057294	10.440686	32.315977	-3625.648829	-3174.908494
43.87	0.006147	0.057260	10.439899	30.252136	-3596.300404	-3192.231864
44.38	0.006149	0.057277	10.439406	31.452088	-3635.279686	-3203.065185
44.89	0.006139	0.057245	10.439626	33.484180	-3676.997347	-3198.238029
45.40	0.006140	0.057270	10.439800	37.560189	-3766.810227	-3194.407680
45.91	0.006126	0.057260	10.440041	39.096290	-3796.609094	-3189.102390
46.42	0.006136	0.057296	10.440300	39.577427	-3801.701702	-3183.395173
46.93	0.006136	0.057282	10.440842	36.588284	-3720.387530	-3171.466460
47.44	0.006146	0.057313	10.441026	34.693719	-3672.543160	-3167.429413
47.95	0.006139	0.057284	10.441353	33.872504	-3646.103325	-3160.241025
48.46	0.006144	0.057291	10.441706	36.654757	-3702.005340	-3152.471948
48.97	0.006124	0.057239	10.442980	37.963221	-3702.731409	-3124.432564
49.48	0.006123	0.057225	10.447593	40.478060	-3654.230376	-3022.944900
49.99	0.006108	0.057149	10.467978	40.596275	-3186.826201	-2574.489846
50.50	0.006119	0.057077	10.503297	39.732484	-2352.379591	-1797.474596
51.01	0.006123	0.056855	10.535879	38.570805	-1574.179355	-1080.654245
51.53	0.006135	0.056514	10.556013	40.498180	-1154.207044	-637.718126
52.04	0.006132	0.055943	10.559752	42.438915	-1112.647689	-555.458692
52.55	0.006138	0.055244	10.562781	45.606901	-1115.706428	-488.812000
53.06	0.006128	0.054376	10.565119	46.780123	-1088.803370	-437.386748
53.57	0.006124	0.053508	10.565815	45.908106	-1052.681838	-422.078489
54.08	0.006108	0.052619	10.566410	41.565218	-938.975723	-408.977260
54.59	0.006126	0.051854	10.566806	37.335286	-832.481593	-400.275206
55.10	0.006115	0.051125	10.566904	32.775693	-725.255110	-398.113462
55.61	0.006124	0.050548	10.567399	31.799649	-691.363197	-387.216327
56.12	0.006109	0.050011	10.567265	30.495458	-664.426708	-390.159640
56.63	0.006120	0.049616	10.567296	30.628896	-666.798300	-389.491807
57.14	0.006103	0.049259	10.567465	29.184584	-629.655040	-385.775689
57.65	0.006111	0.049039	10.567745	28.598290	-609.699888	-379.614537
58.16	0.006102	0.048838	10.567617	24.156191	-510.385786	-382.420457
58.67	0.006114	0.048745	10.567386	22.937255	-487.660274	-387.508561
59.18	0.006109	0.048627	10.567551	20.427499	-426.086910	-383.884061
59.69	0.006122	0.048559	10.567789	20.182882	-414.953094	-378.634903
60.20	0.006112	0.048439	10.568251	20.403807	-409.384658	-368.471935
60.71	0.006114	0.048368	10.568840	20.935935	-408.045057	-355.509312
61.22	0.006103	0.048260	10.568869	20.109933	-388.380462	-354.888984
61.73	0.006113	0.048241	10.568774	19.819057	-383.876952	-356.980295
62.24	0.006098	0.048219	10.568895	17.861289	-336.015205	-354.314507
62.75	0.006110	0.048280	10.569015	17.201927	-318.062639	-351.668104
63.26	0.006101	0.048323	10.568780	17.297457	-325.672092	-356.829098
63.77	0.006111	0.048410	10.568593	18.893335	-366.727636	-360.948995
64.28	0.006135	0.048452	10.569065	20.648900	-396.248850	-350.559735
64.79	0.006255	0.048530	10.569315	23.686421	-460.418705	-345.072070
65.30	0.006555	0.048556	10.569105	23.274756	-455.786631	-349.693080
65.81	0.007235	0.048616	10.569191	23.802912	-465.961355	-347.801261
66.32	0.008373	0.048603	10.568921	21.737736	-424.648904	-353.741407
66.83	0.009935	0.048627	10.569048	21.650362	-419.713950	-350.952545
67.34	0.011530	0.048574	10.569253	21.497083	-411.454752	-346.439840
67.85	0.012736	0.048572	10.568829	22.345713	-440.752578	-355.752487
68.36	0.013206	0.048515	10.568822	22.553628	-445.721620	-355.926953
68.87	0.012965	0.048525	10.569091	23.524746	-461.870722	-350.007320
69.38	0.012156	0.048484	10.568930	21.167826	-411.323677	-353.544809
69.89	0.011114	0.048488	10.568708	20.756540	-406.979026	-358.431676
70.40	0.010023	0.048425	10.568906	18.312629	-346.150724	-354.072057
70.91	0.009096	0.048407	10.569312	18.366956	-338.035067	-345.137528
71.42	0.008335	0.048333	10.569445	18.563613	-339.489785	-342.206899
71.93	0.007774	0.048295	10.569288	19.751298	-370.461641	-345.671245
72.44	0.007345	0.048241	10.569246	19.874589	-374.265366	-346.592344
72.95	0.007046	0.048265	10.569457	20.339732	-380.110195	-341.953874
73.46	0.006817	0.048268	10.569451	19.192381	-353.835823	-342.084809
73.97	0.006664	0.048340	10.569674	19.461931	-354.892621	-337.173970
74.48	0.006545	0.048372	10.569659	19.050031	-345.748394	-337.495965
74.99	0.006475	0.048446	10.569715	20.459854	-376.920865	-336.273851
75.50	0.006408	0.048460	10.570214	21.226143	-383.038498	-325.282877
76.01	0.006374	0.048512	10.570060	22.767304	-422.067662	-328.671320
76.52	0.006326	0.048512	10.569907	22.358255	-416.192399	-332.049002
77.03	0.006317	0.048543	10.569510	22.514154	-428.931487	-340.777564
77.55	0.006276	0.048521	10.569771	21.197826	-392.612849	-335.037710
78.06	0.006278	0.048542	10.569832	21.117742	-389.354998	-333.688549
78.57	0.006258	0.048503	10.570101	20.734747	-374.340041	-327.775742
79.08	0.006256	0.048503	10.570351	21.318512	-382.003897	-322.267690
79.59	0.006238	0.048446	10.570528	20.835110	-366.812848	-318.391682
80.10	0.006240	0.048436	10.570176	21.614659	-392.868597	-326.128617
80.61	0.006226	0.048390	10.569903	20.655659	-377.083096	-332.129018
81.12	0.006239	0.048400	10.569839	20.715244	-379.933186	-333.539328
81.63	0.006234	0.048377	10.570359	19.965957	-350.704821	-322.111504
82.14	0.006249	0.048402	10.570822	20.555968	-353.596495	-311.914101
82.65	0.006252	0.048381	10.571193	20.087923	-334.275699	-303.761481
83.16	0.006273	0.048405	10.571315	21.475058	-363.377687	-301.062510
83.67	0.006274	0.048373	10.570887	21.290813	-369.016117	-310.486796
84.18	0.006284	0.048394	10.570992	22.356397	-391.131427	-308.184003
84.69	0.006278	0.048384	10.571020	21.629593	-373.756332	-307.569402
85.20	0.006285	0.048424	10.571213	21.685741	-370.598791	-303.324464
85.71	0.006286	0.048428	10.570999	20.980935	-359.287901	-308.011477
86.22	0.006298	0.048466	10.570714	21.471551	-377.162522	-314.288942
86.73	0.006272	0.048427	10.570822	20.821516	-359.709567	-311.914328
87.24	0.006246	0.048401	10.570797	21.192791	-368.831792	-312.463396
87.75	0.006165	0.048293	10.571203	20.600979	-345.854341	-303.540426
88.26	0.006089	0.048204	10.571018	20.900143	-357.002863	-307.605859
88.77	0.006009	0.048095	10.570773	19.054440	-320.174422	-313.004009
89.28	0.006041	0.048133	10.570688	19.982283	-343.483886	-314.864916
89.79	0.006117	0.048247	10.570157	20.294263	-362.922460	-326.556841
90.30	0.006124	0.048440	10.570119	22.598888	-416.837782	-327.380683
90.81	0.006143	0.048508	10.570629	22.492631	-402.632953	-316.163865
91.32	0.006170	0.048505	10.570360	23.463333	-431.174936	-322.074996
91.83	0.006200	0.048426	10.570201	22.392649	-410.206527	-325.583801
92.34	0.006202	0.048410	10.570531	22.798163	-411.933094	-318.326279
92.85	0.006202	0.048338	10.570656	21.566308	-380.692089	-315.575088
93.36	0.006216	0.048327	10.570732	21.782342	-383.911607	-313.902407
93.87	0.006217	0.048269	10.571569	20.558132	-336.410518	-295.472778
94.38	0.006222	0.048252	10.571617	21.015708	-345.839057	-294.418999
94.89	0.006223	0.048147	10.570955	20.100430	-340.052785	-308.997642
95.40	0.006237	0.048058	10.571173	20.120470	-335.484512	-304.199901
95.91	0.006242	0.047940	10.570638	18.657473	-314.137813	-315.962497
96.42	0.006242	0.047931	10.569809	19.476439	-352.100106	-334.191580
96.93	0.006242	0.047940	10.570057	18.787468	-330.525970	-328.740735
97.44	0.006242	0.048028	10.570529	20.006209	-347.690897	-318.352623
97.95	0.006242	0.048048	10.570359	19.571445	-341.622454	-322.110706
98.46	0.006242	0.048067	10.568693	18.314256	-351.106515	-358.763683
98.97	0.006242	0.048010	10.564799	10.997843	-272.477995	-444.417479
99.48	0.006242	0.048026	10.560285	-4.992405	-8.492755	-543.723591
99.99	0.006242	0.048058	10.554159	-36.316544	571.287791	-678.501228
100.50	0.006242	0.048205	10.545323	-76.887705	1301.425371	-872.903907
101.01	0.006237	0.048324	10.535713	-117.802383	2021.632116	-1084.322799
101.52	0.006230	0.048481	10.527444	-147.992837	2525.913605	-1266.225285
102.03	0.006227	0.048567	10.522023	-165.925634	2813.679975	-1385.502043
102.54	0.006227	0.048716	10.519399	-171.614333	2884.120242	-1443.224405
103.06	0.006227	0.048833	10.518206	-168.059799	2774.786517	-1469.465905
103.57	0.006227	0.049044	10.517876	-155.783429	2484.582378	-1476.721606
104.08	0.006227	0.049218	10.518402	-137.735856	2081.247155	-1465.166248
104.59	0.006227	0.049421	10.520019	-114.740587	1589.205838	-1429.583768
105.10	0.006227	0.049544	10.523581	-91.108611	1127.366703	-1351.210109
105.61	0.006227	0.049656	10.527211	-67.718931	672.660131	-1271.353116
106.12	0.006227	0.049658	10.530914	-48.003822	304.231833	-1189.883170
106.63	0.006230	0.049671	10.533263	-30.838345	-36.752202	-1138.220258
107.14	0.006232	0.049636	10.534667	-17.894414	-302.340252	-1107.335852
107.65	0.006237	0.049640	10.535609	-7.023487	-530.856278	-1086.608460
108.16	0.006232	0.049593	10.536882	0.320158	-670.534825	-1058.592591
108.67	0.006230	0.049563	10.537818	6.286928	-786.292877	-1037.993061
109.18	0.006230	0.049451	10.538399	9.261844	-841.387907	-1025.223596
109.69	0.006230	0.049367	10.538498	12.288822	-908.773836	-1023.035281
110.20	0.006230	0.049237	10.538755	13.224401	-924.382681	-1017.380649
110.71	0.006230	0.049188	10.539056	15.561611	-971.255818	-1010.771393
111.22	0.006230	0.049144	10.538753	15.784938	-983.374608	-1017.427629
111.73	0.006230	0.049185	10.539274	18.392304	-1031.378169	-1005.964438
112.24	0.006227	0.049191	10.539975	18.317463	-1013.496982	-990.550894
112.75	0.006227	0.049238	10.539628	19.824563	-1056.191712	-998.183842
113.26	0.006227	0.049228	10.539294	19.844372	-1064.360500	-1005.541130
113.77	0.006227	0.049262	10.539123	21.139954	-1098.129629	-1009.304545
114.28	0.006226	0.049248	10.538944	20.935241	-1097.542368	-1013.239543
114.79	0.006226	0.049286	10.539255	22.015804	-1115.229387	-1006.383663
115.30	0.006226	0.049269	10.539106	21.112535	-1097.879101	-1009.667643
115.81	0.006226	0.049288	10.539117	21.552495	-1107.744227	-1009.417142
116.32	0.006222	0.049232	10.538914	20.312732	-1083.906694	-1013.901828
116.83	0.006222	0.049223	10.539238	20.072026	-1070.883254	-1006.764252
117.34	0.006220	0.049158	10.539346	18.336791	-1028.439345	-1004.380064
117.85	0.006222	0.049134	10.539058	18.137421	-1030.506498	-1010.729809
118.36	0.006223	0.049064	10.538896	17.079023	-1009.874663	-1014.289917
118.87	0.006226	0.049044	10.538752	17.274924	-1017.703126	-1017.455823
119.38	0.006223	0.048995	10.538529	16.477991	-1004.508247	-1022.368663
119.89	0.006223	0.048999	10.538802	16.476595	-998.180354	-1016.363102
120.40	0.006223	0.048973	10.538955	15.618058	-974.887652	-1012.996319
120.91	0.006223	0.048998	10.538566	17.260869	-1021.665837	-1021.544495
121.42	0.006223	0.048972	10.538198	18.538346	-1059.552638	-1029.633338
121.93	0.006223	0.048982	10.538107	23.341771	-1172.226530	-1031.637192
122.44	0.006223	0.048935	10.538025	27.530409	-1270.552998	-1033.454815
122.95	0.006223	0.048934	10.538606	32.434981	-1370.053877	-1020.671839
123.46	0.006222	0.048907	10.538705	30.272468	-1317.990361	-1018.493881
123.97	0.006220	0.048949	10.538561	25.960705	-1222.044709	-1021.650964
124.48	0.006219	0.048964	10.538274	25.625857	-1220.960554	-1027.969571
124.99	0.006219	0.049038	10.538211	25.043661	-1209.011012	-1029.355043
125.50	0.006218	0.049053	10.538810	23.604716	-1162.077564	-1016.182144
126.01	0.006216	0.049094	10.540610	22.150031	-1087.078845	-976.583291
126.52	0.006215	0.049071	10.542525	21.866339	-1036.384833	-934.455487
127.03	0.006212	0.049084	10.543465	21.940774	-1016.422208	-913.778542
127.54	0.006209	0.049044	10.542762	20.840583	-1007.305665	-929.240859
128.05	0.006208	0.049045	10.543674	20.797412	-985.272028	-909.170834
128.56	0.006207	0.048989	10.545303	20.075564	-931.076342	-873.324041
129.08	0.006197	0.048967	10.544581	19.824494	-941.954680	-889.214069
129.59	0.006222	0.048905	10.544505	18.609353	-915.735046	-890.885791
130.10	0.006213	0.048908	10.544767	18.310276	-902.812333	-885.126046
130.61	0.006193	0.048893	10.544963	18.201730	-895.802873	-880.823214
131.12	0.006201	0.048940	10.544943	18.542530	-904.106030	-881.260152
131.63	0.006192	0.048949	10.544787	18.607896	-909.209436	-884.692976
132.14	0.006213	0.049005	10.544924	19.017806	-915.489135	-881.682168
132.65	0.006204	0.048994	10.545098	18.941610	-909.703762	-877.836628
133.16	0.006213	0.049023	10.545355	19.154592	-908.691757	-872.194500
133.67	0.006204	0.049000	10.545536	18.985613	-900.612124	-868.197824
134.18	0.006209	0.049030	10.546298	19.204386	-888.082111	-851.441444
134.69	0.006207	0.049018	10.547176	19.116581	-865.808686	-832.122778
135.20	0.006215	0.049056	10.546696	19.717430	-890.705441	-842.678134
135.71	0.006214	0.049045	10.546531	19.991363	-900.826206	-846.317214
136.22	0.006225	0.049090	10.546887	20.493314	-904.177685	-838.492088
136.73	0.006220	0.049087	10.546918	20.467674	-902.855984	-837.794321
137.24	0.006225	0.049121	10.547541	20.718458	-894.264073	-824.091587
137.75	0.006220	0.049094	10.547527	20.520611	-890.040392	-824.407051
138.26	0.006240	0.049084	10.547410	20.446708	-891.042831	-826.986076
138.77	0.006434	0.049003	10.547190	19.853533	-882.456445	-831.820760
139.28	0.008183	0.048952	10.546842	19.476523	-881.802184	-839.475249
139.79	0.016605	0.048863	10.546555	18.824606	-873.419067	-845.793709
140.30	0.043673	0.048821	10.545866	18.511240	-882.096029	-860.951788
140.81	0.108598	0.048740	10.546186	17.745461	-857.079398	-853.903697
141.32	0.233853	0.048700	10.546849	17.337347	-832.403914	-839.327229
141.83	0.425813	0.048622	10.547691	16.527935	-794.349629	-820.800595
142.34	0.653516	0.048599	10.548732	16.595185	-771.893702	-797.903051
142.85	0.855193	0.048545	10.548240	16.310918	-776.682361	-808.713065
143.36	0.972249	0.048565	10.547119	16.462045	-806.014549	-833.374661
143.87	0.982300	0.048536	10.547502	16.250645	-792.320765	-824.954141
144.38	0.900919	0.048579	10.548714	16.561575	-771.517788	-798.282489
144.89	0.763266	0.048587	10.548445	16.621752	-779.115508	-804.208586
145.40	0.606817	0.048647	10.547704	17.064677	-806.397768	-820.507291
145.91	0.460375	0.048665	10.548302	17.209761	-795.958860	-807.363707
146.42	0.339039	0.048716	10.548909	17.737842	-794.112721	-794.006778
146.93	0.245585	0.048718	10.548550	17.810658	-804.064693	-801.901071
147.44	0.176293	0.048768	10.546670	18.179562	-855.920154	-843.265668
147.95	0.125764	0.048776	10.545248	18.234866	-889.989537	-874.550230
148.46	0.089106	0.048832	10.544743	18.683649	-911.952949	-885.646604
148.97	0.062317	0.048847	10.544096	18.800276	-929.575228	-899.895613
149.48	0.043009	0.048905	10.544523	19.227308	-929.541337	-890.486280
149.99	0.029079	0.048911	10.545411	19.268873	-910.030412	-870.961989
150.50	0.019211	0.048973	10.545489	19.923308	-923.286800	-869.236870
151.01	0.012261	0.048960	10.545182	19.830618	-928.242167	-875.999174
151.52	0.007201	0.048990	10.545103	20.180816	-938.117577	-877.729530
152.03	0.003280	0.048948	10.545876	19.742455	-910.192909	-860.717813
152.54	0.000143	0.048929	10.545792	19.562068	-907.982826	-862.570653
153.05	-0.002501	0.048846	10.544336	18.790093	-923.793949	-894.604428
153.56	-0.004609	0.048816	10.542605	18.728778	-962.306104	-932.687769
154.07	-0.006290	0.048750	10.540735	18.244728	-994.283974	-973.820659
154.59	-0.007385	0.048757	10.540127	18.299027	-1009.571512	-987.211190
155.10	-0.007962	0.048736	10.539862	18.143703	-1012.105123	-993.038715
155.61	-0.007915	0.048769	10.539346	18.386390	-1029.587042	-1004.385742
156.12	-0.007350	0.048757	10.539013	18.299404	-1035.265956	-1011.712964
156.63	-0.006236	0.048778	10.538626	18.447235	-1047.592813	-1020.225466
157.14	-0.004778	0.048751	10.538288	18.254942	-1050.961707	-1027.661551
157.65	-0.003021	0.048772	10.538547	18.443988	-1049.342147	-1021.965475
158.16	-0.001212	0.048750	10.538575	18.412383	-1047.979097	-1021.359240
158.67	0.000559	0.048771	10.538233	18.626264	-1060.774975	-1028.868775
159.18	0.002035	0.048750	10.537879	18.474215	-1065.449969	-1036.667055
159.69	0.003145	0.048789	10.537775	18.798317	-1075.292547	-1038.939116
160.20	0.003729	0.048789	10.538149	18.920127	-1069.475377	-1030.715335
160.71	0.003782	0.048835	10.538303	19.340001	-1075.597670	-1027.335588
161.22	0.003267	0.048834	10.538216	19.513658	-1081.599263	-1029.247277
161.73	0.002293	0.048877	10.538661	20.012623	-1082.816063	-1019.451426
162.24	0.000909	0.048855	10.538967	19.902459	-1073.235617	-1012.731635
162.75	-0.000657	0.048879	10.538188	20.108645	-1095.934795	-1029.856943
163.26	-0.002322	0.048832	10.537947	20.356673	-1107.220801	-1035.176390
163.77	-0.003830	0.048815	10.538064	18.793710	-1068.535495	-1032.594701
164.28	-0.005133	0.048759	10.538337	18.873194	-1064.059046	-1026.579247
164.79	-0.005998	0.048770	10.538362	20.114414	-1092.070983	-1026.044552
165.30	-0.006455	0.048757	10.538177	19.579670	-1084.012443	-1030.099692
165.81	-0.006373	0.048793	10.538197	20.369091	-1101.739564	-1029.675112
166.32	-0.005871	0.048778	10.538602	19.033683	-1061.650078	-1020.757210
166.83	-0.004915	0.048802	10.538457	19.718958	-1080.777797	-1023.955564
167.34	-0.003734	0.048762	10.538334	18.894167	-1064.609270	-1026.643554
167.85	-0.002334	0.048764	10.538498	19.427461	-1073.101401	-1023.033889
168.36	-0.000968	0.048724	10.538708	18.840783	-1054.766054	-1018.426308
168.87	0.000317	0.048737	10.539243	19.106593	-1048.541191	-1006.651563
169.38	0.001331	0.048712	10.538928	18.449663	-1040.681482	-1013.579392
169.89	0.002052	0.048743	10.538252	18.719693	-1062.500248	-1028.462968
170.40	0.002371	0.048727	10.538321	17.982211	-1043.917633	-1026.930947
170.91	0.002340	0.048754	10.538450	18.471909	-1052.233799	-1024.110719
171.42	0.001931	0.048736	10.538319	18.046793	-1045.465484	-1026.989334
171.93	0.001269	0.048762	10.538275	18.491605	-1056.717644	-1027.955378
172.44	0.000381	0.048743	10.538829	17.193582	-1014.056364	-1015.763311
172.95	-0.000554	0.048770	10.539447	6.631802	-756.682477	-1002.174617
173.46	-0.001529	0.048749	10.538856	-67.698361	940.753170	-1015.166116
173.97	-0.002306	0.048783	10.538329	-206.029125	4112.913083	-1026.772230
174.48	-0.002960	0.048764	10.538823	-289.452375	6044.690118	-1015.895458
174.99	-0.003332	0.048785	10.539709	-320.022165	6768.822684	-996.410559
175.50	-0.003431	0.048686	10.539736	-331.063367	7023.612928	-995.813860
176.01	-0.003339	0.048462	10.539724	-335.386658	7122.854953	-996.079655
176.52	-0.003031	0.047848	10.541222	-337.246181	7200.226380	-963.107114
177.03	-0.002405	0.046677	10.542239	-338.099812	7243.312938	-940.751144
177.54	-0.001900	0.044593	10.540531	-338.498989	7213.114339	-978.323102
178.05	-0.001280	0.041583	10.540740	-338.660877	7221.668122	-973.718443
178.56	-0.000680	0.037643	10.541564	-338.686012	7241.242628	-955.598153
179.07	-0.000155	0.033114	10.534619	-338.612683	7079.382987	-1108.386678
179.58	0.000093	0.028225	10.527687	-338.469345	6916.215355	-1260.885613
180.09	0.000405	0.023400	10.480396	-338.271679	5820.986689	-2301.289350
180.61	0.000328	0.018785	10.477011	-338.061968	5738.097188	-2375.753107
181.12	0.000285	0.014656	10.470122	-337.866382	5574.708777	-2527.315367
181.63	0.000043	0.011027	10.470100	-337.734893	5571.169884	-2527.803809
182.14	-0.000170	0.008049	10.470089	-337.668396	5569.394263	-2528.037404
182.65	-0.000483	0.005603	10.470093	-337.719742	5570.657201	-2527.960179
183.16	-0.000830	0.003749	10.470079	-337.843908	5573.202599	-2528.258616
183.67	-0.000997	0.002306	10.470072	-338.143598	5579.932170	-2528.419993
184.18	-0.001202	0.001287	10.470084	-338.572998	5590.089528	-2528.159855
184.69	-0.001325	0.000514	10.472209	-339.373673	5657.546489	-2481.394000
185.20	-0.001349	0.000007	10.470119	-340.572244	5636.932302	-2527.376870
185.71	-0.001300	-0.000374	10.470121	-342.981852	5692.447737	-2527.331959
186.22	-0.001219	-0.000589	10.473107	-348.829229	5895.911650	-2461.646732
186.73	-0.001111	-0.000762	10.472995	-584.296760	11313.700567	-2464.120296
187.24	-0.001038	-0.000843	10.472020	-325.164209	5326.085995	-2485.556346
187.75	-0.000930	-0.000945	10.470096	-331.208072	5420.833260	-2527.891033
188.26	-0.000811	-0.000982	10.470083	-333.450206	5472.138333	-2528.184925
188.77	-0.000940	-0.001053	10.470088	-334.066373	5486.437587	-2528.074937
189.28	-0.000740	-0.001068	10.470102	-334.452835	5495.672339	-2527.752011
189.79	-0.000972	-0.001121	10.470098	-334.111065	5487.707094	-2527.845325
190.30	-0.000855	-0.001115	10.474936	-333.651755	5588.724883	-2421.398141
190.81	-0.000866	-0.001150	10.474927	-332.151920	5553.985253	-2421.602223
191.32	-0.000806	-0.001137	10.474931	-329.700909	5497.658102	-2421.512287
191.83	-0.000906	-0.001165	10.474941	-322.933483	5342.092584	-2421.304040
192.34	-0.000733	-0.001132	10.474942	-297.809353	4763.771187	-2421.277814
192.85	-0.000759	-0.001142	10.474940	-434.241916	7904.364645	-2421.313578
193.36	-0.000577	-0.001075	10.474937	-364.806868	6305.925125	-2421.378873
193.87	-0.000536	-0.001045	10.474921	-355.817561	6098.625139	-2421.731067
194.38	-0.000436	-0.000962	10.474901	-352.414915	6019.834720	-2422.172430
194.89	-0.000339	-0.000930	10.474922	-351.868829	6007.733268	-2421.724793
195.40	-0.000377	-0.000862	10.474918	-352.680412	6026.321962	-2421.814138
195.91	-0.000251	-0.000872	10.474919	-358.008450	6148.998523	-2421.788428
196.42	-0.000401	-0.000845	10.474901	-383.179090	6728.000845	-2422.186411
196.93	-0.000363	-0.000872	10.471395	-279.787025	4267.110642	-2499.300314
197.44	-0.000537	-0.000846	10.470167	-323.920585	5254.728984	-2526.315960
197.95	-0.000642	-0.000850	10.470232	-330.430919	5406.086616	-2524.892760
198.46	-0.000719	-0.000824	10.470124	-333.242579	5468.310150	-2527.277464
198.97	-0.000957	-0.000844	10.470119	-334.157958	5489.265362	-2527.388591
199.48	-0.000915	-0.000848	10.470145	-334.578600	5499.559675	-2526.805484
199.99	-0.001090	-0.000914	10.470137	-334.031370	5486.771896	-2526.987430
200.50	-0.001012	-0.000936	10.471255	-333.299751	5495.727386	-2502.379426
201.01	-0.001028	-0.000993	10.470088	-331.347851	5423.861789	-2528.071458
201.52	-0.000873	-0.000980	10.470108	-328.577103	5360.541420	-2527.631421
202.03	-0.000845	-0.000981	10.470097	-321.350357	5193.927684	-2527.876099
202.54	-0.000630	-0.000928	10.470081	-296.659759	4625.204546	-2528.213805
203.05	-0.000574	-0.000917	10.470073	-472.943510	8682.999672	-2528.401272
203.56	-0.000378	-0.000869	10.470073	-370.508694	6324.997818	-2528.389275
204.07	-0.000315	-0.000879	10.470079	-360.225258	6088.401398	-2528.270268
204.58	-0.000237	-0.000841	10.470088	-356.847129	6010.853658	-2528.064585
205.09	-0.000168	-0.000860	10.470078	-357.423874	6023.905275	-2528.279069
205.60	-0.000215	-0.000825	10.470076	-360.173179	6087.138730	-2528.331163
206.12	-0.000169	-0.000831	10.470091	-370.616246	6327.873366	-2528.007973
206.63	-0.000305	-0.000798	10.470086	-436.475275	7843.814374	-2528.114157
207.14	-0.000322	-0.000806	10.470078	-273.950403	4102.363972	-2528.289128
207.65	-0.000459	-0.000772	10.470076	-317.458187	5103.865274	-2528.320616
208.16	-0.000567	-0.000799	10.470075	-324.717749	5270.949843	-2528.347398
208.67	-0.000619	-0.000773	10.470084	-328.633456	5361.281966	-2528.162445
209.18	-0.000773	-0.000803	10.470087	-329.555578	5382.592319	-2528.082854
209.69	-0.000736	-0.000775	10.470082	-330.246416	5398.370017	-2528.202248
210.20	-0.000843	-0.000777	10.470084	-329.932616	5391.200965	-2528.150253
210.71	-0.000753	-0.000731	10.470080	-329.556020	5382.434328	-2528.243280
211.22	-0.000781	-0.000705	10.470074	-327.171942	5327.407472	-2528.382726
211.73	-0.000644	-0.000642	10.470077	-325.115338	5280.136660	-2528.314527
212.24	-0.000646	-0.000629	10.470084	-318.076193	5118.273079	-2528.147461
212.75	-0.000478	-0.000593	10.470080	-300.608325	4716.079762	-2528.232342
213.26	-0.000440	-0.000621	10.470077	-157.420740	1419.881923	-2528.297792
213.77	-0.000356	-0.000622	10.470080	-648.283561	12719.442671	-2528.234339
214.28	-0.000308	-0.000674	10.470094	-416.937153	7394.241621	-2527.934683
214.79	-0.000256	-0.000684	10.470092	-436.143366	7836.311718	-2527.982725
215.30	-0.000261	-0.000735	10.470078	-458.665968	8354.462003	-2528.280638
215.81	-0.000271	-0.000710	10.470077	-1099.134729	23097.814923	-2528.298639
216.32	-0.000262	-0.000743	10.472763	-140.452308	1091.221799	-2469.205879
216.83	-0.000340	-0.000681	10.470809	-276.050821	4167.584928	-2512.196713
217.34	-0.000373	-0.000703	10.470095	-301.818919	4744.277459	-2527.917325
217.85	-0.000408	-0.000641	10.470079	-311.178415	4959.364024	-2528.266295
218.36	-0.000480	-0.000671	10.470072	-315.021494	5047.664507	-2528.424513
218.87	-0.000514	-0.000631	10.470072	-318.780848	5134.217535	-2528.411182
219.38	-0.000571	-0.000677	10.470080	-317.628734	5107.864212	-2528.250973
219.89	-0.000528	-0.000643	10.470077	-317.920890	5114.535190	-2528.302825
220.40	-0.000614	-0.000683	10.470072	-314.933630	5045.649020	-2528.417740
220.91	-0.000544	-0.000643	10.470076	-314.079896	5026.078935	-2528.338959
221.42	-0.000553	-0.000655	10.470086	-311.723703	4972.075342	-2528.114645
221.93	-0.000505	-0.000608	10.470096	-310.651584	4947.629997	-2527.890981
222.44	-0.000489	-0.000609	10.470112	-306.205013	4845.636302	-2527.542955
222.95	-0.000423	-0.000558	10.472509	-313.439548	5067.463874	-2474.800545
223.46	-0.000428	-0.000561	10.470105	-305.859415	4837.519028	-2527.697215
223.97	-0.000338	-0.000524	10.470120	-315.874261	5068.416731	-2527.354418
224.48	-0.000361	-0.000554	10.470102	-310.941222	4954.428750	-2527.765662
224.99	-0.000320	-0.000549	10.470099	-311.584154	4969.176812	-2527.815268
225.50	-0.000312	-0.000599	10.470097	-306.536100	4852.923294	-2527.862051
226.01	-0.000335	-0.000590	10.470092	-310.761322	4950.070131	-2527.973014
226.52	-0.000336	-0.000625	10.470071	-301.566082	4737.903000	-2528.446022
227.03	-0.000318	-0.000608	10.470069	-303.900912	4791.601473	-2528.492285
227.54	-0.000388	-0.000625	10.470067	-290.988729	4494.342411	-2528.516174
228.05	-0.000360	-0.000581	10.470065	-290.929015	4492.921540	-2528.560315
228.56	-0.000401	-0.000588	10.470068	-278.864653	4215.264915	-2528.502243
229.07	-0.000410	-0.000540	10.470075	-267.534299	3954.612872	-2528.341204
229.58	-0.000431	-0.000554	10.470079	-273.399482	4089.703463	-2528.268616
230.09	-0.000430	-0.000537	10.470072	-242.683466	3382.479923	-2528.412997
230.60	-0.000439	-0.000577	10.470077	-274.678365	4119.098768	-2528.310742
231.11	-0.000436	-0.000581	10.470074	-267.360439	3950.571748	-2528.378342
231.62	-0.000443	-0.000623	10.470070	-287.465983	4413.314400	-2528.454723
232.14	-0.000404	-0.000616	10.470071	-296.662282	4625.022716	-2528.442654
232.65	-0.000437	-0.000636	10.470066	-300.075601	4703.496697	-2528.537524
233.16	-0.000374	-0.000598	10.470068	-311.994120	4977.883009	-2528.512647
233.67	-0.000399	-0.000593	10.470071	-310.884179	4952.410502	-2528.438292
234.18	-0.000348	-0.000538	10.470072	-317.989572	5115.997818	-2528.415786
234.69	-0.000350	-0.000530	10.470072	-316.602355	5084.073774	-2528.406983
235.20	-0.000323	-0.000483	10.470072	-319.059194	5140.614855	-2528.420826
235.71	-0.000326	-0.000503	10.470075	-314.219146	5029.277805	-2528.345285
236.22	-0.000304	-0.000468	10.470065	-315.195793	5051.524557	-2528.569755
236.73	-0.000333	-0.000485	10.470124	-305.343286	4826.092275	-2527.263799
237.24	-0.000299	-0.000447	10.471147	-304.898919	4839.452231	-2504.762023
237.75	-0.000348	-0.000443	10.470166	-286.974865	4404.213847	-2526.351552
238.26	-0.000322	-0.000371	10.470105	-286.605942	4394.324783	-2527.683756
238.77	-0.000353	-0.000334	10.470083	-276.026526	4150.271485	-2528.178599
239.28	-0.000351	-0.000230	10.470082	-277.664711	4187.973191	-2528.186947
239.79	-0.000365	-0.000184	10.459621	-301.242317	4489.455359	-2758.332073
240.30	-0.000369	-0.000106	10.459812	-311.998612	4741.467979	-2754.128789
240.81	-0.000380	-0.000106	10.458129	-324.653106	4993.941838	-2791.167263
241.32	-0.000368	-0.000082	10.459839	-328.876782	5130.602189	-2753.552133
241.83	-0.000389	-0.000123	10.459889	-328.363763	5119.955098	-2752.443295
242.34	-0.000348	-0.000135	10.459881	-329.670188	5149.846931	-2752.616554
242.85	-0.000376	-0.000216	10.459868	-324.604277	5032.920040	-2752.913541
243.36	-0.000326	-0.000251	10.459877	-325.738728	5059.255983	-2752.702469
243.87	-0.000350	-0.000331	10.459871	-319.975744	4926.442438	-2752.847119
244.38	-0.000305	-0.000339	10.462584	-322.158908	5039.279172	-2693.150741
244.89	-0.000324	-0.000379	10.460131	-317.580881	4877.318448	-2747.118982
245.40	-0.000288	-0.000354	10.460106	-319.855674	4929.104717	-2747.670994
245.91	-0.000302	-0.000365	10.460109	-314.624207	4808.755317	-2747.597352
246.42	-0.000280	-0.000347	10.460107	-316.013244	4840.685990	-2747.639804
246.93	-0.000308	-0.000378	10.460107	-304.321456	4571.541169	-2747.643482
247.44	-0.000282	-0.000367	10.462086	-302.384960	4572.607172	-2704.103922
247.95	-0.000311	-0.000402	10.463167	-288.945000	4288.141690	-2680.334714
248.46	-0.000294	-0.000384	10.467370	-283.387576	4257.155336	-2587.859671
248.97	-0.000316	-0.000412	10.467232	-266.883086	3874.055548	-2590.885529
249.48	-0.000305	-0.000384	10.467061	-273.188012	4015.246352	-2594.650056
249.99	-0.000334	-0.000404	10.456867	-272.295962	3759.606713	-2818.917882
250.50	-0.000309	-0.000382	10.457604	-273.769326	3810.505548	-2802.718170
251.01	-0.000328	-0.000401	10.457750	-286.562709	4108.376345	-2799.502087
251.52	-0.000320	-0.000371	10.457800	-295.035550	4304.584266	-2798.389828
252.03	-0.000327	-0.000388	10.457979	-297.051563	4355.108588	-2794.463182
252.54	-0.000294	-0.000362	10.457983	-306.041770	4562.152475	-2794.375044
253.05	-0.000323	-0.000396	10.458136	-305.275078	4548.027563	-2791.013403
253.56	-0.000277	-0.000371	10.457941	-310.848119	4671.819349	-2795.303788
254.07	-0.000296	-0.000390	10.457988	-306.765191	4578.911456	-2794.273839
254.58	-0.000274	-0.000347	10.458316	-314.678702	4768.644966	-2787.055456
255.09	-0.000294	-0.000356	10.458003	-310.621069	4668.028105	-2793.934591
255.60	-0.000262	-0.000307	10.458019	-315.207694	4773.977270	-2793.584851
256.11	-0.000299	-0.000319	10.457295	-311.654830	4675.498575	-2809.508370
256.62	-0.000273	-0.000287	10.456857	-313.759003	4713.843311	-2819.135770
257.13	-0.000294	-0.000305	10.457541	-307.549918	4586.678844	-2804.095979
257.65	-0.000273	-0.000274	10.457897	-311.211345	4679.180885	-2796.257505
258.16	-0.000308	-0.000287	10.457623	-301.734710	4454.707575	-2802.290394
258.67	-0.000280	-0.000264	10.457752	-307.124620	4581.748035	-2799.460558
259.18	-0.000313	-0.000279	10.458094	-300.643551	4440.446653	-2791.933679
259.69	-0.000289	-0.000255	10.457449	-303.074345	4481.535754	-2806.115318
260.20	-0.000304	-0.000276	10.457532	-302.899107	4479.405502	-2804.299409
260.71	-0.000284	-0.000248	10.457282	-306.724226	4561.701029	-2809.791425
261.22	-0.000295	-0.000271	10.457304	-301.584032	4443.871831	-2809.317990
261.73	-0.000274	-0.000246	10.457429	-311.516092	4675.386422	-2806.568875
262.24	-0.000296	-0.000266	10.456956	-306.725525	4554.208913	-2816.966720
262.75	-0.000252	-0.000259	10.457501	-310.995036	4665.053846	-2804.983515
263.26	-0.000283	-0.000326	10.457242	-304.117967	4500.776515	-2810.677911
263.77	-0.000258	-0.000356	10.456826	-302.746429	4459.616356	-2819.823797
264.28	-0.000274	-0.000436	10.457577	-294.168122	4279.473576	-2803.295550
264.79	-0.000246	-0.000446	10.457247	-294.062797	4269.437878	-2810.555884
265.30	-0.000283	-0.000483	10.456393	-289.801396	4151.633796	-2829.355529
265.81	-0.000246	-0.000439	10.457120	-295.210162	4292.910125	-2813.360074
266.32	-0.000274	-0.000428	10.457160	-292.106354	4222.385226	-2812.478948
266.83	-0.000249	-0.000370	10.457399	-301.791934	4450.856695	-2807.220332
267.34	-0.000274	-0.000380	10.457856	-294.022742	4282.544660	-2797.173697
267.85	-0.000239	-0.000369	10.457630	-298.234826	4374.287764	-2802.150819
268.36	-0.000264	-0.000442	10.458022	-282.355752	4017.809539	-2793.515464
268.87	-0.000249	-0.000466	10.457808	-279.465089	3946.324737	-2798.230365
269.38	-0.000263	-0.000537	10.457151	-264.415304	3584.730238	-2812.685462
269.89	-0.000249	-0.000539	10.458376	-264.871125	3623.476416	-2785.734461
270.40	-0.000272	-0.000567	10.459789	-255.076803	3430.598109	-2754.652759
270.91	-0.000252	-0.000513	10.459780	-269.954165	3772.871293	-2754.842219
271.42	-0.000267	-0.000474	10.459344	-267.886895	3715.229224	-2764.432974
271.93	-0.000246	-0.000386	10.459851	-289.741383	4230.007374	-2753.276756
272.44	-0.000266	-0.000327	10.458733	-294.068420	4303.820397	-2777.881697
272.95	-0.000230	-0.000217	10.460764	-312.436978	4773.509789	-2733.189842
273.46	-0.000257	-0.000169	10.456362	-318.519402	4812.000784	-2830.034409
273.97	-0.000222	-0.000094	10.460302	-328.773283	5138.899000	-2743.365081
274.48	-0.000241	-0.000088	10.456840	-329.654652	5079.342913	-2819.529532
274.99	-0.000222	-0.000070	10.456366	-332.132129	5125.441009	-2829.958168
275.50	-0.000243	-0.000115	10.456411	-326.254494	4991.194517	-2828.952137
276.01	-0.000217	-0.000119	10.457055	-326.591100	5013.790813	-2814.788791
276.52	-0.000244	-0.000162	10.457752	-319.264872	4861.219629	-2799.453745
277.03	-0.000223	-0.000165	10.459883	-320.532118	4939.528882	-2752.581063
277.54	-0.000255	-0.000206	10.459890	-311.587258	4733.800532	-2752.410061
278.05	-0.000227	-0.000204	10.459888	-313.931274	4787.692386	-2752.473582
278.56	-0.000249	-0.000249	10.459891	-303.168357	4540.018871	-2752.392356
279.07	-0.000229	-0.000249	10.457818	-305.298540	4541.242857	-2798.000558
279.58	-0.000243	-0.000309	10.462105	-291.449218	4321.302283	-2703.691703
280.09	-0.000216	-0.000333	10.462160	-290.000088	4289.217610	-2702.476610
280.60	-0.000231	-0.000414	10.462649	-272.923295	3907.391989	-2691.720084
281.11	-0.000210	-0.000434	10.462367	-276.142197	3974.974271	-2697.935471
281.62	-0.000229	-0.000489	10.463930	-261.074336	3664.164672	-2663.549674
282.13	-0.000207	-0.000497	10.463852	-267.381323	3807.551160	-2665.264979
282.64	-0.000231	-0.000534	10.462399	-257.292222	3541.791718	-2697.232049
283.15	-0.000203	-0.000521	10.464903	-265.177848	3781.084744	-2642.126268
283.67	-0.000228	-0.000539	10.464903	-259.678705	3654.479197	-2642.142629
284.18	-0.000199	-0.000513	10.464903	-270.295133	3898.884560	-2642.124680
284.69	-0.000231	-0.000540	10.464912	-260.416791	3671.696453	-2641.926331
285.20	-0.000199	-0.000522	10.464910	-267.764667	3840.786996	-2641.978825
285.71	-0.000224	-0.000571	10.464895	-258.885976	3636.065602	-2642.300269
286.22	-0.000194	-0.000567	10.457254	-261.194884	3512.978310	-2810.414186
286.73	-0.000216	-0.000609	10.458337	-245.857588	3184.898631	-2786.585987
287.24	-0.000197	-0.000591	10.458625	-256.909188	3445.951072	-2780.244054
287.75	-0.000221	-0.000606	10.458241	-240.190821	3052.247975	-2788.688026
288.26	-0.000197	-0.000575	10.456279	-251.805159	3274.342375	-2831.865278
288.77	-0.000218	-0.000573	10.457093	-244.803400	3131.941208	-2813.953869
289.28	-0.000199	-0.000507	10.457715	-261.549158	3531.776451	-2800.261891
289.79	-0.000213	-0.000487	10.457780	-255.228410	3387.759957	-2798.845375
290.30	-0.000192	-0.000402	10.457467	-278.932342	3926.191891	-2805.736827
290.81	-0.000206	-0.000367	10.457795	-279.105967	3937.757775	-2798.516641
291.32	-0.000184	-0.000287	10.457845	-295.930551	4326.203433	-2797.420134
291.83	-0.000210	-0.000258	10.457450	-297.275193	4348.068613	-2806.089230
292.34	-0.000181	-0.000206	10.457680	-310.080744	4648.135703	-2801.045287
292.85	-0.000200	-0.000212	10.457154	-305.884206	4539.404808	-2812.614261
293.36	-0.000180	-0.000186	10.455119	-313.407380	4665.663492	-2857.373603
293.87	-0.000212	-0.000224	10.455121	-305.178525	4476.283453	-2857.330316
294.38	-0.000181	-0.000226	10.455119	-306.535356	4507.468790	-2857.376512
294.89	-0.000216	-0.000272	10.456893	-296.772271	4323.635618	-2818.352543
295.40	-0.000192	-0.000259	10.456450	-300.261247	4393.728808	-2828.103206
295.91	-0.000211	-0.000271	10.458374	-295.330167	4324.583686	-2785.781638
296.42	-0.000189	-0.000222	10.458187	-306.297387	4572.740820	-2789.887745
296.93	-0.000214	-0.000204	10.456993	-303.531459	4481.537713	-2816.151036
297.44	-0.000183	-0.000147	10.451210	-316.728126	4651.951172	-2943.372685
297.95	-0.000208	-0.000146	10.471958	-314.644715	5082.490235	-2486.930555
298.46	-0.000180	-0.000107	10.469840	-322.743501	5220.072770	-2533.527617
298.97	-0.000200	-0.000133	10.469899	-315.911893	5064.176028	-2532.225986
299.48	-0.000181	-0.000121	10.469897	-321.040435	5182.183568	-2532.273430
299.99	-0.000202	-0.000154	10.469876	-311.822457	4969.522113	-2532.718686
300.50	-0.000181	-0.000149	10.469904	-315.679756	5058.940429	-2532.122862
301.01	-0.000196	-0.000194	10.469885	-304.806688	4808.208101	-2532.540685
301.52	-0.000170	-0.000194	10.461447	-308.269959	4693.336088	-2718.166163
302.03	-0.000198	-0.000253	10.458673	-292.228536	4260.095604	-2779.189780
302.54	-0.000169	-0.000257	10.457453	-295.903536	4316.544403	-2806.040719
303.05	-0.000190	-0.000306	10.457107	-284.196493	4039.073418	-2813.651781
303.56	-0.000168	-0.000309	10.457306	-286.719942	4101.762337	-2809.263837
304.07	-0.000189	-0.000351	10.457370	-275.929100	3854.835760	-2807.856900
304.58	-0.000165	-0.000331	10.457528	-284.994957	4067.174274	-2804.379362
305.09	-0.000197	-0.000342	10.457661	-278.469622	3920.019732	-2801.463815
305.60	-0.000165	-0.000301	10.457650	-288.992253	4162.008994	-2801.690939
306.11	-0.000198	-0.000307	10.457407	-283.449596	4028.804184	-2807.046885
306.62	-0.000167	-0.000270	10.457371	-294.108522	4273.341974	-2807.835797
307.13	-0.000192	-0.000301	10.457613	-280.588161	3967.682579	-2802.518059
307.64	-0.000173	-0.000295	10.456213	-288.011838	4106.278865	-2833.323689
308.15	-0.000195	-0.000347	10.455425	-268.973989	3649.880117	-2850.640865
308.66	-0.000171	-0.000353	10.455236	-273.460044	3748.784242	-2854.803050
309.18	-0.000193	-0.000403	10.455118	-257.191051	3371.542301	-2857.412252
309.69	-0.000172	-0.000399	10.455110	-265.332167	3558.782445	-2857.570200
310.20	-0.000187	-0.000434	10.455120	-248.977495	3182.523033	-2857.360778
310.71	-0.000160	-0.000395	10.458765	-266.404964	3667.754177	-2777.178583
311.22	-0.000177	-0.000394	10.457314	-259.696464	3479.881702	-2809.082030
311.73	-0.000152	-0.000340	10.455065	-279.472528	3883.242899	-2858.567814
312.24	-0.000174	-0.000331	10.455070	-273.848059	3753.888818	-2858.454020
312.75	-0.000150	-0.000295	10.455063	-286.416926	4043.063565	-2858.603102
313.26	-0.000174	-0.000316	10.455113	-277.397598	3836.575874	-2857.521223
313.77	-0.000153	-0.000296	10.458225	-284.762142	4077.874584	-2789.060003
314.28	-0.000182	-0.000342	10.457517	-268.190724	3680.081960	-2804.631788
314.79	-0.000152	-0.000333	10.457238	-274.527697	3819.531586	-2810.760927
315.30	-0.000188	-0.000360	10.455044	-262.123162	3483.390858	-2859.021452
315.81	-0.000160	-0.000325	10.455045	-275.744777	3796.977787	-2859.000459
316.32	-0.000181	-0.000318	10.455044	-270.218990	3669.736435	-2859.038249
316.83	-0.000160	-0.000277	10.455044	-285.654144	4025.044771	-2859.041714
317.34	-0.000181	-0.000284	10.455044	-276.505992	3814.469534	-2859.030172
317.85	-0.000153	-0.000248	10.455043	-290.930180	4146.487865	-2859.050732
318.36	-0.000183	-0.000261	10.455044	-280.650708	3909.875446	-2859.034026
318.87	-0.000153	-0.000210	10.455044	-299.030752	4332.983867	-2859.028213
319.38	-0.000174	-0.000197	10.455043	-295.216993	4245.162955	-2859.056334
319.89	-0.000152	-0.000131	10.455043	-313.724357	4671.189746	-2859.062452
320.40	-0.000168	-0.000118	10.455043	-312.778247	4649.418256	-2859.055163
320.91	-0.000144	-0.000063	10.455045	-327.108242	4979.336072	-2859.011051
321.42	-0.000165	-0.000074	10.455051	-323.389752	4893.888404	-2858.867304
321.93	-0.000138	-0.000049	10.455046	-330.488907	5057.193061	-2858.977450
322.44	-0.000164	-0.000084	10.455045	-321.064402	4840.207615	-2859.012322
322.95	-0.000142	-0.000078	10.455047	-324.212758	4912.731225	-2858.965065
323.46	-0.000172	-0.000133	10.455049	-309.859380	4582.360874	-2858.927393
323.97	-0.000148	-0.000144	10.455043	-309.560306	4575.349841	-2859.048020
324.48	-0.000168	-0.000207	10.455043	-291.439049	4158.193414	-2859.058781
324.99	-0.000151	-0.000223	10.455044	-291.197603	4152.668078	-2859.027630
325.50	-0.000170	-0.000283	10.455044	-270.352762	3672.831040	-2859.023744
326.01	-0.000145	-0.000277	10.455043	-280.178458	3898.991190	-2859.046638
326.52	-0.000172	-0.000318	10.455044	-260.108567	3436.998525	-2859.037715
327.03	-0.000142	-0.000295	10.455045	-273.139371	3736.991401	-2859.010787
327.54	-0.000162	-0.000319	10.455045	-259.393232	3420.568238	-2859.002920
328.05	-0.000144	-0.000296	10.455048	-276.606994	3816.873774	-2858.954622
328.56	-0.000167	-0.000312	10.455055	-261.617111	3471.987928	-2858.786616
329.07	-0.000142	-0.000283	10.455050	-280.510319	3906.788565	-2858.895882
329.58	-0.000168	-0.000297	10.455051	-269.644033	3656.675336	-2858.872063
330.09	-0.000139	-0.000265	10.455063	-283.216446	3969.383822	-2858.608614
330.60	-0.000159	-0.000287	10.455053	-271.310009	3695.059173	-2858.839981
331.11	-0.000143	-0.000250	10.455054	-287.173546	4060.270669	-2858.803442
331.62	-0.000166	-0.000259	10.455054	-275.905802	3800.885022	-2858.809197
332.13	-0.000138	-0.000221	10.455055	-291.990121	4171.169756	-2858.781335
332.64	-0.000160	-0.000233	10.455055	-281.308919	3925.288276	-2858.785027
333.15	-0.000134	-0.000200	10.455054	-294.883642	4237.737408	-2858.819697
333.66	-0.000158	-0.000228	10.455053	-283.028938	3964.834018	-2858.831292
334.17	-0.000136	-0.000208	10.455052	-293.566093	4207.369558	-2858.856247
334.69	-0.000162	-0.000248	10.455052	-277.682590	3841.742453	-2858.850810
335.20	-0.000136	-0.000234	10.455059	-285.817837	4029.165934	-2858.704991
335.71	-0.000153	-0.000269	10.455070	-268.274887	3625.580600	-2858.469016
336.22	-0.000137	-0.000244	10.455056	-284.054106	3988.507510	-2858.760247
336.73	-0.000146	-0.000260	10.455059	-270.184853	3669.300247	-2858.704748
337.24	-0.000125	-0.000213	10.455059	-289.236547	4107.855090	-2858.712964
