Length [m]	OTDR [V]	Brillouin intensity [V]	Fitted Frequency [GHz]	Temperature [”]	Compensated Strain [レュ]	Uncompensated Strain [レュ]
0.51	0.007168	0.043062	10.502458	-145.121782	1931.912168	-1815.915013
1.02	0.007158	0.046646	10.474552	-123.589423	792.641312	-2429.851486
1.53	0.007178	0.049661	10.456598	-88.539888	-428.273036	-2824.850282
2.04	0.007177	0.052166	10.446474	-52.017552	-1502.497641	-3047.580357
2.55	0.007163	0.054257	10.441679	-27.775927	-2171.113363	-3153.064909
3.06	0.007114	0.056016	10.439625	-15.505271	-2500.948103	-3198.249895
3.57	0.007113	0.057507	10.438535	-18.725672	-2451.956523	-3222.231968
4.08	0.007093	0.058765	10.437233	-21.830787	-2410.499253	-3250.869558
4.59	0.007093	0.059824	10.436736	-10.743028	-2677.192986	-3261.798752
5.10	0.007112	0.060667	10.437122	10.698234	-3161.866162	-3253.311521
5.61	0.007134	0.061314	10.436595	29.134168	-3598.423750	-3264.919306
6.12	0.007139	0.061750	10.435562	35.865553	-3777.183349	-3287.627417
6.63	0.007130	0.062047	10.435457	27.665577	-3590.855396	-3289.947982
7.14	0.007112	0.062223	10.436011	12.435841	-3227.492457	-3277.757426
7.65	0.007105	0.062368	10.435976	2.304697	-2995.086168	-3278.529295
8.16	0.007099	0.062470	10.436004	7.206774	-3107.279477	-3277.908471
8.67	0.007133	0.062572	10.435498	22.575539	-3472.742634	-3289.049557
9.18	0.007170	0.062624	10.435548	40.948514	-3894.526419	-3287.947018
9.69	0.007187	0.062618	10.435579	52.529712	-4160.405324	-3287.263737
10.20	0.007175	0.062532	10.434915	53.582030	-4199.946573	-3301.874940
10.71	0.007131	0.062433	10.434911	46.039327	-4026.396526	-3301.951628
11.22	0.007084	0.062325	10.435731	40.562825	-3881.432220	-3283.925570
11.73	0.007061	0.062278	10.435277	42.781910	-3942.979186	-3293.907617
12.24	0.007061	0.062285	10.433862	52.093052	-4189.957758	-3325.042368
12.75	0.007095	0.062351	10.433538	59.405607	-4365.749831	-3332.158080
13.26	0.007127	0.062411	10.434713	59.967234	-4351.594677	-3306.322879
13.77	0.007130	0.062443	10.435594	52.029222	-4148.546262	-3286.941359
14.28	0.007102	0.062424	10.436500	42.376067	-3905.436980	-3267.007647
14.79	0.007073	0.062396	10.436572	34.277715	-3717.355648	-3265.424132
15.30	0.007043	0.062362	10.435353	30.075533	-3648.720065	-3292.226187
15.81	0.007030	0.062376	10.434329	28.962993	-3646.733626	-3314.761097
16.32	0.007018	0.062407	10.434625	28.797589	-3636.107929	-3308.257224
16.83	0.006994	0.062455	10.435296	26.665972	-3571.567034	-3293.498605
17.34	0.006917	0.062458	10.435830	25.413817	-3530.426616	-3281.750081
17.85	0.006802	0.062436	10.435593	26.945795	-3571.141935	-3286.948586
18.36	0.006664	0.062381	10.435064	30.366448	-3662.080903	-3298.583095
18.87	0.006548	0.062341	10.436122	34.040720	-3722.279177	-3275.324777
19.38	0.006460	0.062302	10.437333	36.691913	-3755.361117	-3248.665395
19.89	0.006417	0.062296	10.437256	41.166695	-3860.165456	-3250.378993
20.40	0.006396	0.062273	10.437037	37.717578	-3785.817013	-3255.195299
20.91	0.006368	0.062235	10.436840	42.647303	-3903.828199	-3259.517060
21.42	0.006329	0.062142	10.437920	46.759317	-3973.576277	-3235.756160
21.93	0.006286	0.062051	10.438492	46.918790	-3964.061273	-3223.177966
22.44	0.006247	0.061972	10.438344	52.603719	-4098.328887	-3226.423622
22.95	0.006228	0.061945	10.438390	44.066430	-3900.756866	-3225.425296
23.46	0.006232	0.061967	10.438440	43.085186	-3877.000130	-3224.310341
23.97	0.006260	0.062023	10.438553	38.276411	-3763.710404	-3221.836527
24.48	0.006273	0.062065	10.438596	36.571137	-3723.469119	-3220.895527
24.99	0.006288	0.062093	10.438938	35.670965	-3694.859992	-3213.371625
25.50	0.006280	0.062078	10.438893	39.548696	-3785.148732	-3214.349099
26.02	0.006261	0.062050	10.438794	37.332058	-3736.402732	-3216.524240
26.53	0.006249	0.062019	10.438247	35.956597	-3717.355083	-3228.557728
27.04	0.006250	0.062019	10.437340	35.589447	-3729.837361	-3248.526733
27.55	0.006256	0.062024	10.437745	30.107269	-3594.301149	-3239.618845
28.06	0.006284	0.062058	10.438778	34.004530	-3660.177117	-3216.879981
28.57	0.006300	0.062056	10.438925	33.969545	-3655.995140	-3213.658999
29.08	0.006300	0.062057	10.438440	39.301782	-3789.911758	-3224.314450
29.59	0.006290	0.062035	10.438289	42.006358	-3855.651205	-3227.635029
30.10	0.006266	0.062021	10.438449	43.960817	-3896.960405	-3224.122959
30.61	0.006244	0.062000	10.438469	39.320824	-3789.682142	-3223.677273
31.12	0.006242	0.062023	10.438733	45.775029	-3932.166952	-3217.869163
31.63	0.006248	0.062041	10.438727	37.286355	-3736.913822	-3218.015339
32.14	0.006266	0.062083	10.438544	44.435464	-3905.683817	-3222.021690
32.65	0.006264	0.062066	10.438698	40.903504	-3820.847788	-3218.652966
33.16	0.006263	0.062086	10.439819	44.792232	-3884.491928	-3193.972521
33.67	0.006257	0.062023	10.441215	39.835486	-3738.198841	-3163.265855
34.18	0.006242	0.062057	10.441231	44.379686	-3842.432452	-3162.910701
34.69	0.006239	0.062019	10.441058	38.588460	-3713.128292	-3166.733830
35.20	0.006264	0.062094	10.441128	39.581276	-3734.357256	-3165.183431
35.71	0.006280	0.062066	10.441786	38.373888	-3691.397440	-3150.716356
36.22	0.006295	0.062100	10.441483	38.581642	-3703.154857	-3157.369833
36.73	0.006297	0.062005	10.441464	38.743146	-3707.312239	-3157.789185
37.24	0.006283	0.061954	10.442406	41.045322	-3738.592213	-3137.074815
37.75	0.006264	0.061816	10.443030	40.233919	-3705.517832	-3123.342264
38.26	0.006253	0.061758	10.443193	40.959845	-3718.467203	-3119.754421
38.77	0.006253	0.061667	10.442784	40.434055	-3715.788856	-3128.745131
39.28	0.006267	0.061650	10.442647	39.318534	-3693.272726	-3131.762139
39.79	0.006268	0.061615	10.442800	37.910478	-3657.343689	-3128.408134
40.30	0.006272	0.061617	10.442351	37.657343	-3661.864589	-3138.279133
40.81	0.006263	0.061589	10.442045	37.990430	-3676.577370	-3144.999613
41.32	0.006254	0.061595	10.442802	38.979309	-3681.894275	-3128.357055
41.83	0.006243	0.061585	10.443594	39.293471	-3670.850873	-3110.924151
42.34	0.006241	0.061624	10.443738	39.840974	-3680.146290	-3107.768732
42.85	0.006247	0.061647	10.444190	38.183613	-3631.560556	-3097.815824
43.36	0.006262	0.061669	10.444505	36.333956	-3581.730476	-3090.898461
43.87	0.006262	0.061638	10.444350	35.289375	-3561.243882	-3094.293715
44.38	0.006267	0.061603	10.444112	35.665638	-3575.395881	-3099.531166
44.89	0.006257	0.061521	10.444023	37.470077	-3618.990640	-3101.493537
45.40	0.006250	0.061464	10.444575	39.626892	-3655.900055	-3089.341056
45.91	0.006245	0.061403	10.445516	40.472127	-3653.662406	-3068.646396
46.42	0.006248	0.061402	10.445523	40.513366	-3654.450598	-3068.492706
46.93	0.006254	0.061418	10.444561	38.797280	-3637.131542	-3089.654751
47.44	0.006263	0.061470	10.444213	37.419359	-3613.435011	-3097.307685
47.95	0.006261	0.061505	10.444183	37.476874	-3615.450976	-3097.967775
48.46	0.006263	0.061537	10.444990	39.152750	-3635.413955	-3080.210734
48.97	0.006248	0.061536	10.447159	40.670880	-3620.337279	-3032.493059
49.48	0.006240	0.061520	10.454101	42.181022	-3495.011601	-2879.783694
49.99	0.006236	0.061458	10.481311	42.519697	-2875.254385	-2281.157309
50.50	0.006237	0.061339	10.518419	42.442977	-2017.658201	-1464.776609
51.01	0.006240	0.061071	10.546701	42.082949	-1357.102113	-842.574499
51.53	0.006243	0.060623	10.560174	43.462561	-1078.132893	-546.170039
52.04	0.006243	0.059951	10.563158	45.631797	-1059.244295	-480.518802
52.55	0.006243	0.059125	10.565071	48.153416	-1073.184633	-438.445410
53.06	0.006246	0.058171	10.566657	48.702858	-1049.255895	-403.554698
53.57	0.006247	0.057210	10.568113	47.463891	-987.155392	-371.522662
54.08	0.006249	0.056274	10.568623	43.687183	-888.438410	-360.287138
54.59	0.006251	0.055439	10.569337	39.278457	-770.496672	-344.591219
55.10	0.006255	0.054697	10.569900	35.846306	-678.510040	-332.209830
55.61	0.006252	0.054085	10.569449	33.940419	-645.036715	-342.130017
56.12	0.006248	0.053570	10.569432	32.934260	-622.256923	-342.494051
56.63	0.006238	0.053172	10.569742	32.451299	-603.986958	-335.671371
57.14	0.006229	0.052841	10.569372	31.272153	-585.372276	-343.807100
57.65	0.006224	0.052607	10.569189	29.406625	-546.659574	-347.843176
58.16	0.006220	0.052430	10.569868	26.504263	-464.189191	-332.905971
58.67	0.006218	0.052322	10.569989	25.020456	-427.228741	-330.231493
59.18	0.006217	0.052228	10.569931	23.510701	-393.831977	-331.526211
59.69	0.006225	0.052176	10.570043	23.597495	-393.231826	-329.047861
60.20	0.006226	0.052110	10.569813	24.232436	-413.154229	-334.109526
60.71	0.006221	0.052069	10.569638	24.651454	-426.848854	-337.971872
61.22	0.006218	0.052002	10.569957	24.124119	-407.343196	-330.944858
61.73	0.006222	0.051961	10.569981	23.466554	-391.664366	-330.427924
62.24	0.006215	0.051917	10.569882	21.582820	-350.584944	-332.606142
62.75	0.006225	0.051916	10.569879	20.677023	-329.789649	-332.659424
63.26	0.006223	0.051912	10.569513	20.639896	-337.384953	-340.719869
63.77	0.006224	0.051923	10.569931	21.249633	-341.766214	-331.510226
64.28	0.006246	0.051916	10.570248	22.625802	-366.136554	-324.538521
64.79	0.006348	0.051929	10.571033	23.976304	-379.127342	-307.275411
65.30	0.006632	0.051916	10.570719	23.997320	-386.842663	-314.173609
65.81	0.007253	0.051928	10.570546	23.698909	-383.969749	-317.985794
66.32	0.008308	0.051919	10.570259	22.635662	-366.117532	-324.303868
66.83	0.009753	0.051930	10.570166	22.839279	-372.957752	-326.357654
67.34	0.011247	0.051930	10.570038	22.848723	-376.109678	-329.156897
67.85	0.012365	0.051943	10.570313	23.279149	-379.689241	-323.119922
68.36	0.012834	0.051950	10.570482	24.203890	-397.065191	-319.388961
68.87	0.012620	0.051976	10.570395	24.559534	-407.277298	-321.320907
69.38	0.011888	0.051980	10.570960	23.170187	-362.248935	-308.876183
69.89	0.010916	0.051998	10.571158	22.379558	-339.482074	-304.519847
70.40	0.009919	0.051983	10.571079	21.375068	-318.179173	-306.256056
70.91	0.009062	0.051974	10.571190	21.239345	-312.493082	-303.812345
71.42	0.008382	0.051923	10.571101	21.696852	-325.092199	-305.784519
71.93	0.007886	0.051881	10.571606	22.473564	-331.319249	-294.669052
72.44	0.007516	0.051813	10.571589	22.643423	-335.631687	-295.052830
72.95	0.007267	0.051782	10.571657	22.412973	-328.743015	-293.542050
73.46	0.007074	0.051752	10.571493	21.428763	-309.884124	-297.164308
73.97	0.006932	0.051771	10.571386	21.471137	-313.326610	-299.517646
74.48	0.006828	0.051793	10.571423	21.390349	-310.606779	-298.697170
74.99	0.006754	0.051853	10.571576	22.318224	-328.427690	-295.321821
75.50	0.006692	0.051898	10.571684	23.167403	-345.501653	-292.961992
76.01	0.006652	0.051956	10.571611	24.237735	-371.811407	-294.556056
76.52	0.006617	0.051978	10.571439	24.471221	-381.143615	-298.331067
77.03	0.006595	0.051993	10.571439	24.207994	-375.095381	-298.341712
77.55	0.006574	0.051960	10.571573	23.131257	-347.210476	-295.385771
78.06	0.006563	0.051922	10.571221	22.893600	-349.860373	-303.132137
78.57	0.006546	0.051862	10.570985	22.183094	-338.955842	-308.331930
79.08	0.006539	0.051832	10.571054	22.556698	-345.966284	-306.815411
79.59	0.006529	0.051793	10.571421	22.640948	-339.431233	-298.731594
80.10	0.006524	0.051793	10.571936	22.964773	-335.016428	-287.409545
80.61	0.006522	0.051782	10.571966	22.726149	-328.826175	-286.744478
81.12	0.006531	0.051815	10.572193	22.567638	-319.938309	-281.746975
81.63	0.006538	0.051834	10.572260	22.192651	-309.759347	-280.271399
82.14	0.006555	0.051874	10.571910	22.576180	-326.679044	-287.989425
82.65	0.006562	0.051910	10.571671	22.723611	-335.586398	-293.248828
83.16	0.006570	0.051951	10.572109	23.899869	-352.557369	-283.608588
83.67	0.006571	0.051957	10.572216	24.408807	-361.791653	-281.241660
84.18	0.006569	0.051977	10.571713	24.787486	-382.125878	-292.323331
84.69	0.006564	0.051974	10.571765	24.678514	-378.401633	-291.163633
85.20	0.006562	0.051984	10.571687	24.601150	-378.418150	-292.878189
85.71	0.006566	0.051972	10.571788	24.345616	-370.205378	-290.655147
86.22	0.006576	0.051973	10.571645	24.296939	-372.393359	-293.811136
86.73	0.006547	0.051918	10.571319	23.949978	-371.924774	-300.982932
87.24	0.006522	0.051873	10.572175	23.481415	-341.406772	-282.160628
87.75	0.006445	0.051772	10.572748	22.704277	-310.279535	-269.533016
88.26	0.006365	0.051675	10.572450	21.906640	-298.802891	-276.100365
88.77	0.006301	0.051584	10.572430	21.124939	-281.274016	-276.544526
89.28	0.006336	0.051595	10.572508	20.989244	-276.349299	-274.826464
89.79	0.006371	0.051700	10.572249	21.919699	-303.727439	-280.511155
90.30	0.006376	0.051812	10.572293	22.914640	-325.617368	-279.544593
90.81	0.006399	0.051835	10.572460	23.651889	-338.739398	-275.872841
91.32	0.006438	0.051745	10.572789	23.535654	-328.486709	-268.645085
91.83	0.006462	0.051638	10.572436	23.106800	-326.763957	-276.418768
92.34	0.006468	0.051550	10.572123	22.730283	-325.310983	-283.300557
92.85	0.006468	0.051477	10.572203	22.305127	-313.680248	-281.541741
93.36	0.006471	0.051443	10.572299	22.154602	-308.002738	-279.431259
93.87	0.006474	0.051430	10.571949	21.588728	-303.038380	-287.121519
94.38	0.006474	0.051467	10.571920	21.757599	-307.598208	-287.762988
94.89	0.006475	0.051483	10.572420	22.201901	-306.301637	-276.769941
95.40	0.006481	0.051504	10.572043	22.492224	-321.658790	-285.044135
95.91	0.006487	0.051504	10.572189	22.281987	-313.452961	-281.833052
96.42	0.006487	0.051538	10.572124	22.886459	-328.868754	-283.264911
96.93	0.006487	0.051585	10.572160	22.655651	-322.735970	-282.483039
97.44	0.006487	0.051669	10.572639	23.363575	-327.973414	-271.934058
97.95	0.006487	0.051728	10.572512	23.728378	-339.308606	-274.736218
98.46	0.006492	0.051768	10.569906	22.703301	-375.809605	-332.063916
98.97	0.006492	0.051769	10.565278	16.915834	-349.332594	-433.891864
99.48	0.006492	0.051805	10.560322	1.961702	-119.389707	-542.919512
99.99	0.006492	0.051847	10.554628	-26.973679	415.378600	-668.180861
100.50	0.006492	0.051937	10.547038	-66.031270	1139.423080	-835.159939
101.01	0.006487	0.052022	10.538751	-106.030192	1869.056198	-1017.478268
101.52	0.006483	0.052115	10.532025	-136.558648	2416.678459	-1165.459807
102.03	0.006482	0.052179	10.528312	-154.580663	2745.908963	-1247.142823
102.54	0.006481	0.052262	10.527334	-161.021954	2871.628614	-1268.659738
103.06	0.006478	0.052362	10.527401	-157.670664	2796.034238	-1267.180062
103.57	0.006478	0.052521	10.526672	-145.955747	2509.559098	-1283.207345
104.08	0.006474	0.052680	10.526334	-128.170671	2092.349895	-1290.650514
104.59	0.006474	0.052846	10.526848	-106.298555	1600.711850	-1279.346192
105.10	0.006474	0.052975	10.529638	-83.724739	1145.423164	-1217.959679
105.61	0.006474	0.053080	10.532999	-62.511394	734.619165	-1144.013022
106.12	0.006474	0.053144	10.535159	-44.797955	376.667576	-1096.503087
106.63	0.006475	0.053225	10.536485	-29.854367	63.262549	-1067.321937
107.14	0.006475	0.053315	10.537392	-18.768367	-171.029975	-1047.382068
107.65	0.006474	0.053449	10.538382	-9.217620	-368.042287	-1025.592373
108.16	0.006471	0.053572	10.538997	-1.690655	-527.130938	-1012.066484
108.67	0.006471	0.053693	10.539592	4.216020	-649.381083	-998.979374
109.18	0.006471	0.053748	10.540383	8.348662	-726.272069	-981.579185
109.69	0.006471	0.053764	10.540012	11.633337	-810.429281	-989.730414
110.20	0.006471	0.053735	10.540022	13.555014	-854.431697	-989.507270
110.71	0.006471	0.053722	10.539948	15.320543	-896.789498	-991.144086
111.22	0.006471	0.053708	10.539903	16.410686	-922.920318	-992.132426
111.73	0.006468	0.053740	10.540241	17.788781	-946.851074	-984.699112
112.24	0.006467	0.053760	10.540256	18.497015	-962.799489	-984.360570
112.75	0.006464	0.053786	10.540076	19.596422	-992.261831	-988.323446
113.26	0.006463	0.053766	10.539436	19.834537	-1012.499717	-1002.399823
113.77	0.006463	0.053747	10.539086	20.284818	-1030.949246	-1010.111375
114.28	0.006462	0.053695	10.539445	20.190064	-1020.478209	-1002.203669
114.79	0.006462	0.053673	10.539634	20.179948	-1015.885172	-998.044491
115.30	0.006462	0.053657	10.539851	19.538644	-996.124285	-993.276601
115.81	0.006460	0.053683	10.540465	19.341935	-977.440332	-979.773314
116.32	0.006459	0.053704	10.540265	18.586150	-964.647657	-984.166284
116.83	0.006459	0.053738	10.540137	18.433359	-964.076238	-986.976268
117.34	0.006457	0.053741	10.540212	17.976980	-951.860141	-985.344695
117.85	0.006457	0.053738	10.540598	17.905482	-941.312773	-976.853503
118.36	0.006456	0.053699	10.540473	17.752538	-940.675472	-979.604018
118.87	0.006456	0.053676	10.539808	17.894808	-959.268280	-994.215737
119.38	0.006454	0.053639	10.539695	17.739489	-958.310196	-996.712407
119.89	0.006452	0.053640	10.539557	17.559224	-957.350780	-999.755576
120.40	0.006451	0.053638	10.539982	17.011377	-934.923463	-990.391971
120.91	0.006451	0.053653	10.540234	18.682812	-967.585190	-984.845841
121.42	0.006451	0.053634	10.540046	19.886490	-999.629831	-988.982339
121.93	0.006451	0.053614	10.540328	24.074134	-1089.540232	-982.793669
122.44	0.006451	0.053555	10.539943	28.223754	-1193.942570	-991.263877
122.95	0.006450	0.053513	10.539570	31.648012	-1281.362187	-999.462079
123.46	0.006446	0.053470	10.540173	29.283100	-1213.024874	-986.204861
123.97	0.006445	0.053473	10.540497	27.278880	-1159.398006	-979.059713
124.48	0.006444	0.053490	10.540020	27.124248	-1166.838362	-989.552600
124.99	0.006440	0.053525	10.540461	26.028449	-1131.454697	-979.862137
125.50	0.006439	0.053539	10.542109	23.956725	-1045.743463	-943.593834
126.01	0.006439	0.053555	10.546564	22.688671	-913.827136	-845.602837
126.52	0.006438	0.053546	10.558450	22.289484	-630.488315	-584.090074
127.03	0.006437	0.053552	10.576459	22.330512	-216.097911	-187.900035
127.54	0.006435	0.053542	10.578570	22.088352	-161.850777	-141.470911
128.05	0.006433	0.053526	10.580091	21.861605	-121.551579	-108.008338
128.56	0.006432	0.053472	10.590606	21.488083	129.556534	123.322958
129.08	0.006429	0.053399	10.599226	20.934855	341.106223	312.973193
129.59	0.006440	0.053287	10.597094	19.820794	317.576842	266.065208
130.10	0.006426	0.053173	10.594826	18.730002	290.387880	216.177287
130.61	0.006416	0.053034	10.600848	17.797517	450.742294	348.664132
131.12	0.006419	0.052929	10.604499	17.092370	551.171118	428.979691
131.63	0.006426	0.052816	10.599226	16.333156	447.030780	312.968436
132.14	0.006438	0.052726	10.596317	15.731228	393.804867	248.978478
132.65	0.006439	0.052628	10.602536	14.820588	558.183841	385.784083
133.16	0.006438	0.052556	10.604431	14.339542	612.971808	427.483509
133.67	0.006430	0.052494	10.598785	13.921376	492.374512	303.262815
134.18	0.006429	0.052459	10.598118	13.686443	482.405423	288.594457
134.69	0.006423	0.052440	10.604016	13.556431	621.434321	418.359963
135.20	0.006432	0.052460	10.604255	13.940971	618.089314	423.613084
135.71	0.006441	0.052478	10.598324	14.289901	473.270705	293.131881
136.22	0.006471	0.052507	10.597295	14.549321	443.566918	270.493786
136.73	0.006737	0.052513	10.602436	14.615974	560.596225	383.592231
137.24	0.008829	0.052534	10.600925	14.917344	518.808149	350.348020
137.75	0.018525	0.052517	10.595877	14.803466	405.018293	239.302716
138.26	0.048594	0.052501	10.596927	14.953914	425.753304	262.385556
138.77	0.118981	0.052444	10.602513	14.570317	563.415117	385.278625
139.28	0.251430	0.052399	10.601315	14.269432	542.728939	358.938960
139.79	0.448843	0.052324	10.595496	13.763782	420.160822	230.917279
140.30	0.676179	0.052276	10.596319	13.437745	446.636644	249.013383
140.81	0.870291	0.052229	10.600854	13.056499	560.003481	348.782971
141.32	0.976010	0.052238	10.599080	13.110942	517.850515	309.768527
141.83	0.975467	0.052241	10.594131	13.204531	401.543920	200.878156
142.34	0.887039	0.052271	10.598246	13.522042	489.137819	291.406523
142.85	0.746627	0.052268	10.603651	13.514115	613.971182	410.311624
143.36	0.590882	0.052292	10.599533	13.674525	515.318130	319.728344
143.87	0.446980	0.052297	10.594653	13.712740	401.882211	212.360407
144.38	0.328572	0.052334	10.599641	13.960444	511.229801	322.106850
144.89	0.237645	0.052364	10.603752	14.158275	601.481302	412.542293
145.40	0.170296	0.052402	10.598328	14.417796	470.423974	293.224768
145.91	0.121230	0.052395	10.594745	14.541313	384.936219	214.389803
146.42	0.085636	0.052374	10.600858	14.483098	527.262709	348.877454
146.93	0.059721	0.052301	10.604713	14.128432	624.337052	433.689203
147.44	0.041089	0.052240	10.598375	13.746752	486.948954	294.252862
147.95	0.027706	0.052162	10.594758	13.221523	415.613232	214.672078
148.46	0.018222	0.052118	10.599987	13.029273	540.651048	329.724736
148.97	0.011508	0.052074	10.602898	12.732640	614.598174	393.749638
149.48	0.006592	0.052049	10.597312	12.564744	489.649740	270.873950
149.99	0.002775	0.052001	10.594810	12.303608	437.950568	215.823668
150.50	-0.000294	0.051980	10.601421	12.217360	592.392713	361.252922
151.01	-0.002854	0.051937	10.602983	11.968446	634.153718	395.623163
151.52	-0.004907	0.051921	10.595283	11.922307	457.630015	226.223171
152.03	-0.006500	0.051888	10.591796	11.704664	382.229698	149.519286
152.54	-0.007529	0.051883	10.597830	11.729147	520.819060	282.257999
153.05	-0.008016	0.051885	10.599533	11.785641	558.786951	319.716287
153.56	-0.007895	0.051903	10.587552	12.017333	277.150644	56.149603
154.07	-0.007238	0.051910	10.567864	12.121513	-179.321040	-376.993410
154.59	-0.006055	0.051947	10.553143	12.454603	-526.502109	-700.857005
155.10	-0.004526	0.051969	10.547243	12.603269	-665.989136	-830.649898
155.61	-0.002733	0.052032	10.544127	13.029785	-747.685441	-899.214746
156.12	-0.000909	0.052105	10.542593	13.526506	-794.489901	-932.954477
156.63	0.000813	0.052212	10.541613	14.249508	-833.733994	-954.513531
157.14	0.002235	0.052321	10.540400	15.034160	-879.766022	-981.193875
157.65	0.003239	0.052430	10.539706	16.009508	-918.226519	-996.464282
158.16	0.003724	0.052511	10.539224	16.567358	-942.185025	-1007.068843
158.67	0.003660	0.052596	10.539164	17.194676	-958.022853	-1008.401622
159.18	0.003049	0.052641	10.539470	17.737056	-963.438723	-1001.657959
159.69	0.001976	0.052683	10.539221	18.099721	-977.541550	-1007.147120
160.20	0.000542	0.052686	10.539205	18.134213	-978.704213	-1007.498787
160.71	-0.001070	0.052708	10.539933	18.325981	-966.310259	-991.465195
161.22	-0.002738	0.052716	10.539994	18.423773	-967.172054	-990.139887
161.73	-0.004213	0.052750	10.540054	18.753129	-973.366739	-988.816841
162.24	-0.005441	0.052779	10.540032	19.085184	-981.515455	-989.298490
162.75	-0.006216	0.052829	10.540014	19.463350	-990.628423	-989.687410
163.26	-0.006552	0.052848	10.539942	19.780154	-999.596436	-991.285489
163.77	-0.006360	0.052864	10.539693	19.234761	-992.777180	-996.756602
164.28	-0.005737	0.052838	10.539499	19.848965	-1011.381723	-1001.016541
164.79	-0.004715	0.052816	10.539605	20.290466	-1019.115833	-998.699410
165.30	-0.003449	0.052759	10.539629	19.687903	-1004.683266	-998.163539
165.81	-0.002032	0.052717	10.539731	19.037859	-987.353935	-995.907041
166.32	-0.000652	0.052651	10.540338	17.927877	-947.807656	-982.557246
166.83	0.000596	0.052611	10.540127	17.578842	-944.657365	-987.216478
167.34	0.001560	0.052585	10.539738	17.501758	-951.848352	-995.768653
167.85	0.002192	0.052600	10.539514	18.009148	-968.687771	-1000.690312
168.36	0.002432	0.052626	10.539830	18.228552	-966.444580	-993.732725
168.87	0.002287	0.052693	10.540543	19.050335	-968.917056	-978.046035
169.38	0.001796	0.052756	10.540481	18.948063	-968.006821	-979.423517
169.89	0.001049	0.052822	10.540214	18.897347	-973.000953	-985.301088
170.40	0.000112	0.052861	10.539971	17.542062	-947.392494	-990.633174
170.91	-0.000865	0.052903	10.539688	3.738105	-636.172849	-996.874313
171.42	-0.001807	0.052918	10.539717	-77.285921	1229.643060	-996.234666
171.93	-0.002582	0.052929	10.539481	-213.975247	4370.749870	-1001.418864
172.44	-0.003186	0.052904	10.539662	-291.052164	6149.209382	-997.436074
172.95	-0.003491	0.052849	10.539716	-319.141572	6797.054849	-996.256200
173.46	-0.003530	0.052666	10.540189	-329.370940	7043.448657	-985.842159
173.97	-0.003415	0.052262	10.541520	-333.425343	7167.469319	-956.567108
174.48	-0.002892	0.051349	10.542037	-335.190318	7220.034738	-945.181024
174.99	-0.002414	0.049635	10.542111	-336.014353	7240.712504	-943.551025
175.50	-0.001769	0.046863	10.541718	-336.407406	7240.688917	-952.204405
176.01	-0.001122	0.042993	10.542402	-336.579144	7260.423400	-937.150699
176.52	-0.000500	0.038184	10.542668	-336.623894	7267.577472	-931.309038
177.03	-0.000130	0.032851	10.544679	-336.582408	7313.017043	-887.053032
177.54	0.000305	0.027360	10.544402	-336.481940	7304.299244	-893.162837
178.05	0.000394	0.022108	10.530374	-336.344352	6977.601055	-1201.780680
178.56	0.000407	0.017333	10.530702	-336.200911	6981.881906	-1194.547394
179.07	0.000292	0.013196	10.528053	-336.079885	6917.987755	-1252.838800
179.58	-0.000021	0.009713	10.527430	-336.014194	6902.105278	-1266.546687
180.09	-0.000225	0.006908	10.526700	-336.016528	6885.336080	-1282.594165
180.61	-0.000661	0.004687	10.524866	-336.114803	6845.288773	-1322.953458
181.12	-0.000880	0.003010	10.524893	-336.303472	6850.258377	-1322.355840
181.63	-0.001190	0.001764	10.524893	-336.628569	6857.738891	-1322.358798
182.14	-0.001328	0.000866	10.523641	-337.138244	6840.609939	-1349.889935
182.65	-0.001462	0.000214	10.523420	-337.988356	6855.070323	-1354.763341
183.16	-0.001451	-0.000232	10.521911	-339.378960	6852.279779	-1387.960935
183.67	-0.001406	-0.000564	10.515457	-342.226423	6768.971545	-1529.955277
184.18	-0.001302	-0.000782	10.516452	-350.780980	6988.855661	-1508.052539
184.69	-0.001165	-0.000958	10.517881	-196.509926	3470.553807	-1476.607025
185.20	-0.001100	-0.001075	10.517602	-322.089777	6354.906094	-1482.762499
185.71	-0.000834	-0.001180	10.517525	-328.018858	6489.627382	-1484.445305
186.22	-0.000979	-0.001237	10.517251	-330.203103	6533.587268	-1490.474655
186.73	-0.000689	-0.001285	10.515132	-331.059817	6504.434631	-1537.095719
187.24	-0.000867	-0.001303	10.515107	-331.416280	6512.054477	-1537.654516
187.75	-0.000687	-0.001317	10.515106	-331.232173	6507.801731	-1537.668507
188.26	-0.000858	-0.001296	10.515100	-330.698954	6495.394960	-1537.794660
188.77	-0.000691	-0.001281	10.515098	-329.279741	6462.667682	-1537.849487
189.28	-0.000839	-0.001248	10.515092	-326.483009	6398.160953	-1537.970559
189.79	-0.000668	-0.001222	10.515095	-319.010292	6226.202926	-1537.912028
190.30	-0.000673	-0.001163	10.517838	-282.762039	5455.054558	-1477.554617
190.81	-0.000670	-0.001114	10.517687	-398.164613	8108.080932	-1480.894624
191.32	-0.000477	-0.001061	10.517681	-359.185295	7210.669408	-1481.010000
191.83	-0.000665	-0.001046	10.513320	-352.570117	6957.803124	-1576.960604
192.34	-0.000363	-0.001039	10.514506	-350.657279	6941.113976	-1550.877280
192.85	-0.000583	-0.001079	10.517827	-351.352322	7033.713463	-1477.808303
193.36	-0.000362	-0.001119	10.519172	-354.496913	7137.128293	-1448.211098
193.87	-0.000519	-0.001183	10.519868	-364.600018	7385.734896	-1432.913706
194.38	-0.000445	-0.001226	10.518565	-437.186330	9026.603409	-1461.572410
194.89	-0.000570	-0.001263	10.516760	-287.062176	5529.167680	-1501.282589
195.40	-0.000687	-0.001264	10.513135	-318.383714	6166.567744	-1581.039564
195.91	-0.000665	-0.001256	10.510673	-325.511462	6273.865438	-1635.202900
196.42	-0.000953	-0.001235	10.510542	-328.604427	6342.056795	-1638.071904
196.93	-0.000846	-0.001230	10.513848	-329.877304	6447.589444	-1565.354319
197.44	-0.001072	-0.001204	10.594919	-330.491990	8331.507061	218.226637
197.95	-0.000951	-0.001186	10.595661	-330.369643	8345.792515	234.540175
198.46	-0.001069	-0.001141	10.596835	-329.830265	8360.444154	260.360407
198.97	-0.000859	-0.001098	10.596389	-328.350703	8316.107662	250.556669
199.48	-0.000884	-0.001030	10.585119	-325.489105	7990.309261	2.612521
199.99	-0.000683	-0.000986	10.581636	-317.359968	7722.855579	-74.008687
200.50	-0.000567	-0.000935	10.577572	-276.005620	6677.161422	-163.419372
201.01	-0.000518	-0.000925	10.580993	-406.120923	9751.268245	-88.159080
201.52	-0.000275	-0.000922	10.588077	-364.246882	8950.733800	67.701062
202.03	-0.000391	-0.000948	10.594107	-357.341327	8930.835300	200.355886
202.54	-0.000134	-0.000972	10.597860	-355.923044	8984.750957	282.929770
203.05	-0.000313	-0.001014	10.598098	-357.818313	9033.869412	288.166724
203.56	-0.000162	-0.001030	10.599458	-363.501210	9196.052096	318.085318
204.07	-0.000338	-0.001050	10.600948	-382.112132	9658.829447	350.861789
204.58	-0.000333	-0.001043	10.597625	-745.935697	17957.287788	277.758620
205.09	-0.000464	-0.001033	10.597292	-286.417198	7371.646630	270.430242
205.60	-0.000603	-0.001003	10.596486	-314.321392	7995.388977	252.685088
206.12	-0.000617	-0.000968	10.598069	-322.154433	8212.213491	287.512717
206.63	-0.000818	-0.000907	10.602401	-326.093752	8402.818544	382.830034
207.14	-0.000739	-0.000861	10.603497	-327.756544	8466.358617	406.928715
207.65	-0.000894	-0.000805	10.603326	-328.558494	8480.881996	403.172962
208.16	-0.000762	-0.000770	10.602566	-328.679030	8466.123068	386.447548
208.67	-0.000839	-0.000728	10.595626	-327.524642	8279.489799	233.765833
209.18	-0.000675	-0.000703	10.590691	-325.812968	8126.270830	125.195388
209.69	-0.000655	-0.000689	10.585123	-321.514781	7898.922226	2.708435
210.20	-0.000548	-0.000688	10.584396	-311.761374	7657.629956	-13.290642
210.71	-0.000428	-0.000702	10.587899	-277.332787	6945.881621	63.771510
211.22	-0.000423	-0.000718	10.580911	-98.550584	2669.223152	-89.953463
211.73	-0.000276	-0.000766	10.577989	-448.044459	10647.052127	-154.247128
212.24	-0.000335	-0.000786	10.573729	-425.420973	10028.013252	-247.972085
212.75	-0.000230	-0.000840	10.578058	-428.535443	10199.556515	-152.725383
213.26	-0.000327	-0.000842	10.581590	-464.265977	11103.522236	-75.019279
213.77	-0.000268	-0.000889	10.579744	1549.999199	-35306.759072	-115.642273
214.28	-0.000383	-0.000878	10.583146	-168.079576	4321.300120	-40.786004
214.79	-0.000392	-0.000928	10.582289	-277.269855	6815.066582	-59.631730
215.30	-0.000457	-0.000914	10.584706	-293.235815	7238.328996	-6.469197
215.81	-0.000542	-0.000948	10.583695	-303.799806	7458.183977	-28.718529
216.32	-0.000542	-0.000938	10.588995	-307.710105	7670.439178	87.888209
216.83	-0.000626	-0.000956	10.596171	-310.005836	7888.796528	245.769427
217.34	-0.000593	-0.000928	10.593586	-310.628924	7843.504071	188.882601
217.85	-0.000631	-0.000906	10.593225	-310.416732	7830.297519	180.944247
218.36	-0.000592	-0.000842	10.592368	-310.318994	7808.281464	162.089214
218.87	-0.000590	-0.000780	10.592214	-309.325109	7781.847213	158.697723
219.38	-0.000534	-0.000714	10.589118	-310.229559	7731.274494	90.595736
219.89	-0.000506	-0.000661	10.576093	-303.961515	7286.591006	-195.952839
220.40	-0.000469	-0.000637	10.567292	-310.163614	7226.383291	-389.574505
220.91	-0.000413	-0.000628	10.567285	-298.790943	6964.431921	-389.723672
221.42	-0.000402	-0.000654	10.567106	-305.643450	7118.028059	-393.678778
221.93	-0.000335	-0.000690	10.572877	-294.721678	6999.712759	-266.713872
222.44	-0.000355	-0.000733	10.573053	-301.281768	7154.788195	-262.836808
222.95	-0.000315	-0.000753	10.572544	-290.988591	6906.097330	-274.040845
223.46	-0.000322	-0.000770	10.593784	-298.511790	7569.148624	193.248461
223.97	-0.000343	-0.000763	10.594796	-288.735795	7367.458355	215.521966
224.48	-0.000338	-0.000770	10.595179	-288.654227	7374.396616	223.931505
224.99	-0.000374	-0.000761	10.571566	-288.977705	6837.251767	-295.556796
225.50	-0.000393	-0.000774	10.567971	-267.718792	6264.968213	-374.645695
226.01	-0.000401	-0.000762	10.580344	-288.573649	7030.418426	-102.421642
226.52	-0.000442	-0.000756	10.583613	-247.798666	6167.166059	-30.522215
227.03	-0.000445	-0.000725	10.596117	-284.238628	7294.384886	244.568154
227.54	-0.000461	-0.000703	10.598451	-253.952759	6651.058862	295.930515
228.05	-0.000472	-0.000668	10.596311	-282.416065	7256.903829	248.835648
228.56	-0.000473	-0.000651	10.594714	-274.780515	7044.306953	213.704162
229.07	-0.000452	-0.000630	10.580684	-290.352453	7079.191193	-94.957051
229.58	-0.000469	-0.000638	10.577578	-298.052937	7184.833963	-163.275473
230.09	-0.000415	-0.000649	10.577090	-296.017150	7126.710352	-174.016928
230.60	-0.000425	-0.000686	10.576740	-307.112976	7374.051388	-181.725507
231.11	-0.000399	-0.000714	10.579780	-301.745969	7320.629204	-114.833403
231.62	-0.000375	-0.000749	10.581366	-308.050373	7502.326723	-79.946915
232.14	-0.000376	-0.000752	10.592173	-304.048808	7659.452439	157.804748
232.65	-0.000345	-0.000757	10.582054	-307.644604	7508.850152	-64.814062
233.16	-0.000353	-0.000726	10.579352	-301.694403	7309.556692	-124.263214
233.67	-0.000317	-0.000720	10.596831	-303.035528	7743.559010	260.284624
234.18	-0.000334	-0.000714	10.593863	-292.909569	7442.006647	194.983856
234.69	-0.000322	-0.000734	10.592953	-282.064560	7171.382387	174.974874
235.20	-0.000330	-0.000751	10.591887	-275.331967	6991.812385	151.520225
235.71	-0.000347	-0.000778	10.592606	-214.911578	5617.543046	167.342998
236.22	-0.000341	-0.000787	10.577886	-250.777242	6103.647340	-156.518291
236.73	-0.000371	-0.000808	10.579385	-76.501627	2126.453768	-123.540396
237.24	-0.000357	-0.000811	10.581193	-225.607400	5600.516571	-83.763584
237.75	-0.000384	-0.000830	10.581943	-115.066535	3073.204119	-67.260618
238.26	-0.000372	-0.000820	10.582841	-232.914284	5806.726262	-47.507835
238.77	-0.000385	-0.000815	10.585130	-231.755120	5832.855274	2.870347
239.28	-0.000378	-0.000784	10.578798	-264.828426	6448.151480	-136.437947
239.79	-0.000396	-0.000768	10.587572	-282.937262	7067.351093	56.575599
240.30	-0.000368	-0.000739	10.593621	-286.273572	7283.679645	189.671917
240.81	-0.000380	-0.000733	10.576028	-299.428379	7180.731169	-197.391891
241.32	-0.000366	-0.000714	10.578090	-296.383759	7158.206576	-152.022713
241.83	-0.000340	-0.000713	10.576891	-303.711307	7299.237018	-178.395531
242.34	-0.000351	-0.000713	10.577164	-297.696968	7167.075724	-172.398581
242.85	-0.000321	-0.000729	10.576617	-300.617706	7221.709300	-184.418567
243.36	-0.000329	-0.000734	10.577171	-291.086662	7015.072109	-172.242750
243.87	-0.000303	-0.000740	10.578487	-289.215212	7002.354508	-143.279762
244.38	-0.000314	-0.000723	10.578628	-281.016847	6816.877220	-140.183144
244.89	-0.000297	-0.000691	10.576287	-268.202947	6467.916802	-191.683361
245.40	-0.000296	-0.000626	10.575534	-273.887397	6581.403469	-208.250226
245.91	-0.000314	-0.000584	10.576157	-246.386223	5962.691902	-194.555912
246.42	-0.000305	-0.000542	10.579125	-268.085957	6530.672174	-129.251757
246.93	-0.000329	-0.000546	10.581111	-235.112700	5817.450520	-85.551972
247.44	-0.000329	-0.000568	10.581325	-262.665331	6456.637740	-80.844380
247.95	-0.000350	-0.000627	10.598307	-236.499003	6245.949620	292.754260
248.46	-0.000331	-0.000678	10.598098	-261.322811	6812.557145	288.148774
248.97	-0.000350	-0.000732	10.597961	-257.059523	6711.268833	285.145028
249.48	-0.000338	-0.000763	10.597871	-265.643265	6906.783107	283.160412
249.99	-0.000345	-0.000796	10.597633	-274.509791	7105.408250	277.933724
250.50	-0.000339	-0.000784	10.597995	-275.409319	7134.462393	285.896256
251.01	-0.000326	-0.000764	10.598088	-285.309766	7364.505883	287.936263
251.52	-0.000328	-0.000722	10.598168	-285.445361	7369.468033	289.692225
252.03	-0.000310	-0.000680	10.598704	-291.541001	7522.161723	301.495987
252.54	-0.000306	-0.000636	10.592048	-291.692331	7372.119225	155.046693
253.05	-0.000299	-0.000619	10.592598	-292.809583	7410.534679	167.158126
253.56	-0.000303	-0.000596	10.575670	-289.842348	6951.814643	-205.261014
254.07	-0.000295	-0.000610	10.579924	-286.028113	6962.130049	-111.665959
254.58	-0.000303	-0.000602	10.589471	-282.588560	7103.128048	98.360419
255.09	-0.000299	-0.000600	10.596051	-275.100932	7082.518064	243.118044
255.60	-0.000293	-0.000557	10.597923	-278.035761	7193.251733	284.302818
256.11	-0.000299	-0.000533	10.598411	-269.075232	6998.244099	295.044433
256.62	-0.000291	-0.000493	10.585091	-278.019000	6896.914661	1.993419
257.13	-0.000307	-0.000484	10.582496	-271.588483	6689.047983	-55.086719
257.65	-0.000292	-0.000475	10.576777	-274.236937	6618.107128	-180.913810
258.16	-0.000309	-0.000481	10.580718	-277.459759	6783.198432	-94.200934
258.67	-0.000295	-0.000470	10.593816	-277.846782	7094.191867	193.958814
259.18	-0.000306	-0.000469	10.601655	-283.789567	7411.769112	366.402300
259.69	-0.000300	-0.000447	10.598523	-288.947380	7458.279398	297.510504
260.20	-0.000301	-0.000428	10.597072	-292.054770	7496.344737	265.587381
260.71	-0.000291	-0.000399	10.588746	-299.190856	7468.584877	82.408887
261.22	-0.000291	-0.000391	10.577274	-300.158727	7226.293509	-169.967144
261.73	-0.000288	-0.000388	10.577568	-301.798624	7270.824074	-163.499002
262.24	-0.000277	-0.000409	10.591155	-300.752725	7560.105671	135.414626
262.75	-0.000287	-0.000430	10.596526	-298.903381	7641.407867	253.578163
263.26	-0.000277	-0.000472	10.595605	-292.964739	7483.459099	233.314101
263.77	-0.000277	-0.000489	10.594402	-293.057165	7457.828632	206.835518
264.28	-0.000270	-0.000534	10.590588	-282.469244	7126.152137	122.943212
264.79	-0.000270	-0.000566	10.588190	-280.424132	7023.764199	70.182567
265.30	-0.000274	-0.000624	10.588734	-270.276664	6802.727576	82.158487
265.81	-0.000274	-0.000657	10.583610	-262.129691	6497.002066	-30.578762
266.32	-0.000278	-0.000696	10.586133	-257.970403	6459.441615	24.924157
266.83	-0.000277	-0.000702	10.591507	-249.721755	6393.513307	143.163308
267.34	-0.000278	-0.000705	10.578809	-251.574270	6143.298357	-136.196597
267.85	-0.000276	-0.000695	10.579930	-242.861403	5968.573447	-111.545473
268.36	-0.000281	-0.000708	10.579927	-246.152256	6044.255662	-111.614263
268.87	-0.000274	-0.000737	10.586767	-238.671187	6029.797331	38.867443
269.38	-0.000282	-0.000800	10.585436	-232.812434	5864.243113	9.594257
269.89	-0.000270	-0.000853	10.592972	-231.355693	6004.503746	175.377542
270.40	-0.000272	-0.000897	10.593453	-223.750621	5840.543024	185.971073
270.91	-0.000262	-0.000896	10.597907	-233.374320	6164.786486	283.945903
271.42	-0.000256	-0.000873	10.598301	-232.090454	6144.329728	292.623959
271.93	-0.000253	-0.000812	10.597670	-246.339771	6457.789180	278.739902
272.44	-0.000246	-0.000756	10.597410	-249.974063	6535.451268	273.018316
272.95	-0.000252	-0.000686	10.590786	-260.796462	6631.802469	127.283835
273.46	-0.000247	-0.000633	10.593363	-265.550535	6800.680126	183.984439
273.97	-0.000250	-0.000567	10.593927	-276.144672	7057.567371	196.398421
274.48	-0.000241	-0.000529	10.581116	-275.856544	6755.468193	-85.448659
274.99	-0.000239	-0.000506	10.581690	-280.436419	6874.128828	-72.825176
275.50	-0.000239	-0.000509	10.589437	-277.872984	6993.794590	97.613968
276.01	-0.000235	-0.000507	10.588022	-273.563351	6861.960696	66.490327
276.52	-0.000239	-0.000514	10.584174	-274.782925	6801.276174	-18.177039
277.03	-0.000237	-0.000507	10.595038	-269.576193	6931.985304	220.839439
277.54	-0.000246	-0.000494	10.598428	-273.104484	7091.390440	295.420588
278.05	-0.000246	-0.000472	10.601778	-270.683957	7112.931070	369.119615
278.56	-0.000243	-0.000463	10.601630	-274.209405	7190.663588	365.855264
279.07	-0.000239	-0.000451	10.600151	-272.337650	7113.465003	333.316191
279.58	-0.000238	-0.000451	10.601911	-272.134592	7149.389418	372.043544
280.09	-0.000236	-0.000454	10.602258	-275.470028	7234.180586	379.684861
280.60	-0.000240	-0.000465	10.602477	-271.946246	7158.096023	384.484624
281.11	-0.000232	-0.000452	10.601576	-278.699191	7292.764983	364.661020
281.62	-0.000233	-0.000456	10.585200	-277.974870	6898.426932	4.405011
282.13	-0.000232	-0.000452	10.589381	-282.212153	7092.398387	96.390688
282.64	-0.000230	-0.000468	10.597686	-276.985374	7163.602711	279.085448
283.15	-0.000221	-0.000464	10.597253	-280.733191	7239.901373	269.570425
283.67	-0.000226	-0.000473	10.594675	-277.588119	7108.037635	212.846221
284.18	-0.000226	-0.000482	10.589923	-277.623769	6999.254957	108.295046
284.69	-0.000229	-0.000492	10.594848	-275.289374	7059.117543	216.658242
285.20	-0.000231	-0.000483	10.589673	-273.874085	6907.188641	102.810223
285.71	-0.000227	-0.000461	10.585293	-277.211540	6882.998491	6.449382
286.22	-0.000226	-0.000423	10.586577	-279.004527	6953.887471	34.699316
286.73	-0.000225	-0.000383	10.590847	-283.997993	7167.300469	128.625674
287.24	-0.000220	-0.000329	10.587065	-290.537002	7230.602852	45.422859
287.75	-0.000220	-0.000304	10.592300	-294.751248	7448.365328	160.608798
288.26	-0.000219	-0.000284	10.593429	-296.487364	7514.367378	185.445864
288.77	-0.000217	-0.000306	10.595324	-294.511634	7512.584963	227.129818
289.28	-0.000215	-0.000335	10.597215	-289.680527	7444.983621	268.728750
289.79	-0.000216	-0.000387	10.597865	-280.820322	7256.011355	283.024556
290.30	-0.000206	-0.000415	10.597745	-278.088643	7190.361269	280.384361
290.81	-0.000212	-0.000454	10.597222	-270.510695	7003.855671	268.876619
291.32	-0.000208	-0.000474	10.598761	-271.274183	7056.927711	302.737197
291.83	-0.000213	-0.000507	10.599427	-262.876937	6878.994928	317.397729
292.34	-0.000215	-0.000532	10.599925	-263.588500	6906.845772	328.339885
292.85	-0.000211	-0.000564	10.599936	-255.222361	6714.518197	328.586074
293.36	-0.000217	-0.000577	10.599930	-256.509816	6744.021793	328.459028
293.87	-0.000223	-0.000596	10.599928	-251.817487	6635.967619	328.422434
294.38	-0.000212	-0.000591	10.599935	-252.951896	6662.228174	328.562497
294.89	-0.000214	-0.000593	10.599933	-249.650785	6586.204682	328.530992
295.40	-0.000210	-0.000591	10.599928	-250.013049	6594.418985	328.411844
295.91	-0.000211	-0.000603	10.599931	-247.229277	6530.417418	328.488070
296.42	-0.000205	-0.000608	10.599934	-242.845177	6429.552678	328.541247
296.93	-0.000202	-0.000615	10.599908	-245.275906	6484.924962	327.985819
297.44	-0.000201	-0.000597	10.599919	-244.759394	6473.269970	328.209928
297.95	-0.000204	-0.000584	10.599911	-246.699027	6517.735927	328.034672
298.46	-0.000203	-0.000545	10.599921	-250.635721	6608.593374	328.259878
298.97	-0.000200	-0.000539	10.599923	-251.350670	6625.101991	328.308287
299.48	-0.000196	-0.000551	10.599922	-250.793028	6612.238114	328.282376
299.99	-0.000205	-0.000586	10.597361	-245.185379	6424.087644	271.940635
300.50	-0.000197	-0.000605	10.597877	-243.624820	6400.066483	283.294380
301.01	-0.000204	-0.000613	10.574638	-241.889120	5824.147884	-227.963807
301.52	-0.000201	-0.000581	10.579873	-247.497990	6073.990490	-112.800440
302.03	-0.000195	-0.000554	10.579602	-251.069929	6149.961858	-118.765625
302.54	-0.000197	-0.000514	10.583610	-258.706956	6418.203967	-30.586311
303.05	-0.000199	-0.000500	10.575641	-258.920418	6239.345890	-205.887259
303.56	-0.000197	-0.000476	10.574407	-264.901135	6348.543667	-233.050935
304.07	-0.000197	-0.000458	10.573363	-264.694796	6319.726807	-256.008560
304.58	-0.000196	-0.000433	10.586000	-269.164768	6714.075870	22.008816
305.09	-0.000192	-0.000419	10.592402	-268.754898	6852.276886	162.839631
305.60	-0.000191	-0.000401	10.595267	-270.212434	6951.910340	225.875085
306.11	-0.000192	-0.000417	10.599317	-266.520856	6960.325910	314.964502
306.62	-0.000186	-0.000426	10.582941	-263.023414	6502.150508	-45.292504
307.13	-0.000183	-0.000453	10.586374	-259.978211	6511.212796	30.220350
307.64	-0.000184	-0.000478	10.594772	-254.307402	6574.356327	214.976138
308.15	-0.000176	-0.000517	10.592536	-248.311864	6384.788932	165.800273
308.66	-0.000176	-0.000540	10.599333	-240.894889	6370.802964	315.325138
309.18	-0.000176	-0.000566	10.599435	-235.329831	6245.058101	317.577180
309.69	-0.000173	-0.000554	10.590949	-237.427230	6097.617861	130.877313
310.20	-0.000184	-0.000550	10.578330	-236.487228	5784.939979	-146.746617
310.71	-0.000182	-0.000520	10.601896	-243.741210	6495.439111	371.715059
311.22	-0.000183	-0.000504	10.598778	-245.885017	6472.872002	303.113239
311.73	-0.000190	-0.000477	10.598661	-253.856105	6653.675979	300.549388
312.24	-0.000189	-0.000469	10.597832	-255.330978	6668.494849	282.299081
312.75	-0.000186	-0.000453	10.592924	-257.302722	6600.698182	174.330832
313.26	-0.000187	-0.000443	10.569761	-257.745271	6076.661020	-335.268630
313.77	-0.000179	-0.000416	10.567166	-262.452652	6125.194401	-392.339744
314.28	-0.000189	-0.000404	10.593736	-263.994937	6773.471806	192.188994
314.79	-0.000184	-0.000380	10.580824	-269.412773	6600.397831	-91.875074
315.30	-0.000189	-0.000369	10.594435	-269.062678	6906.256653	207.572808
315.81	-0.000184	-0.000352	10.593416	-272.654443	6965.424946	185.143713
316.32	-0.000179	-0.000348	10.591648	-273.105738	6935.050189	146.259297
316.83	-0.000173	-0.000327	10.591212	-276.449960	7001.983847	136.673328
317.34	-0.000169	-0.000317	10.580154	-276.099215	6738.870456	-106.610021
317.85	-0.000162	-0.000297	10.576900	-281.068388	6778.218527	-178.191623
318.36	-0.000164	-0.000301	10.578497	-280.386564	6799.351755	-143.060657
318.87	-0.000160	-0.000324	10.575212	-276.914552	6643.659062	-215.336297
319.38	-0.000159	-0.000361	10.573241	-270.265338	6445.148750	-258.689073
319.89	-0.000158	-0.000382	10.573131	-265.336954	6329.154272	-261.116528
320.40	-0.000162	-0.000414	10.566175	-258.597039	6013.572128	-414.153053
320.91	-0.000155	-0.000403	10.565934	-260.562619	6053.263808	-419.452273
321.42	-0.000162	-0.000394	10.565117	-260.555647	6034.251141	-437.435470
321.93	-0.000168	-0.000358	10.587813	-267.402860	6715.318367	61.883036
322.44	-0.000166	-0.000345	10.595872	-270.053490	6962.213814	239.193799
322.95	-0.000171	-0.000332	10.597647	-271.720851	7041.529374	278.240465
323.46	-0.000174	-0.000353	10.598064	-266.997042	6942.391198	287.400140
323.97	-0.000164	-0.000385	10.593143	-260.699623	6683.942535	179.146953
324.48	-0.000168	-0.000428	10.579876	-248.168608	6089.492437	-112.738866
324.99	-0.000162	-0.000440	10.579584	-247.977090	6078.349741	-119.162471
325.50	-0.000158	-0.000448	10.584023	-244.770269	6106.910907	-21.500630
326.01	-0.000153	-0.000428	10.598056	-251.115184	6576.629254	287.240820
326.52	-0.000159	-0.000411	10.598913	-255.156001	6689.413781	306.095999
327.03	-0.000155	-0.000378	10.599381	-260.590757	6825.299670	316.378792
327.54	-0.000160	-0.000363	10.599321	-265.511975	6937.204514	315.062485
328.05	-0.000158	-0.000332	10.602551	-273.558103	7196.907166	386.112695
328.56	-0.000161	-0.000327	10.601701	-271.200934	7123.042152	367.412545
329.07	-0.000162	-0.000318	10.600733	-273.727777	7158.900540	346.132190
329.58	-0.000161	-0.000308	10.597152	-274.512723	7094.378115	267.347640
330.09	-0.000154	-0.000302	10.597453	-276.276013	7141.911299	273.970454
330.60	-0.000158	-0.000317	10.602402	-271.201814	7139.228850	382.833801
331.11	-0.000154	-0.000315	10.600967	-270.448891	7088.815557	351.277422
331.62	-0.000157	-0.000332	10.598215	-266.515368	6934.794771	290.730741
332.13	-0.000158	-0.000327	10.593009	-268.545327	6861.445497	176.187490
332.64	-0.000158	-0.000329	10.593671	-267.807490	6859.745857	190.768037
333.15	-0.000157	-0.000327	10.594366	-266.993474	6857.020362	206.042821
333.66	-0.000160	-0.000347	10.593203	-261.268696	6698.435235	180.475587
334.17	-0.000150	-0.000358	10.584649	-262.550653	6530.655053	-7.720736
334.69	-0.000156	-0.000393	10.582902	-251.652727	6239.491182	-46.160567
335.20	-0.000151	-0.000393	10.571973	-254.739323	6058.486338	-286.599246
335.71	-0.000153	-0.000398	10.571762	-252.280986	5997.024543	-291.246384
336.22	-0.000152	-0.000375	10.571871	-254.699644	6055.236588	-288.827904
336.73	-0.000149	-0.000358	10.567383	-259.307851	6057.792447	-387.579475
337.24	-0.000149	-0.000322	10.576093	-267.884117	6456.107116	-195.947622
