Length [m]	OTDR [V]	Brillouin intensity [V]	Fitted Frequency [GHz]	Temperature [”]	Compensated Strain [レュ]	Uncompensated Strain [レュ]
0.51	0.007174	0.066383	10.468238	-120.514397	580.823320	-2568.774295
1.02	0.007202	0.070132	10.448664	-103.920619	-252.586327	-2999.392377
1.53	0.007158	0.073219	10.440868	-80.093399	-980.885027	-3170.908573
2.04	0.007184	0.075901	10.438123	-56.992930	-1575.952648	-3231.293351
2.55	0.007182	0.078246	10.437917	-40.007333	-1971.714409	-3235.833107
3.06	0.007175	0.080308	10.437596	-23.285752	-2364.041948	-3242.894354
3.57	0.007158	0.082037	10.437806	-14.173175	-2568.957770	-3238.265461
4.08	0.007150	0.083469	10.438549	-4.274992	-2779.682430	-3221.926849
4.59	0.007118	0.084604	10.439533	8.778464	-3057.477181	-3200.281456
5.10	0.007129	0.085531	10.440117	23.162095	-3375.106707	-3187.425938
5.61	0.007129	0.086231	10.438965	29.452562	-3546.473481	-3212.763925
6.12	0.007161	0.086765	10.437185	31.991755	-3645.982378	-3251.928918
6.63	0.007162	0.087125	10.436675	27.430813	-3552.756713	-3263.152243
7.14	0.007174	0.087357	10.436675	23.378601	-3459.476696	-3263.152740
7.65	0.007157	0.087454	10.437119	21.003243	-3394.561419	-3253.389189
8.16	0.007156	0.087484	10.437640	26.114214	-3500.180086	-3241.909752
8.67	0.007146	0.087456	10.437488	31.421295	-3625.874808	-3245.274702
9.18	0.007168	0.087429	10.437260	37.833856	-3778.734965	-3250.278117
9.69	0.007160	0.087361	10.436674	38.671524	-3811.524955	-3263.162669
10.20	0.007171	0.087298	10.435927	38.590561	-3826.902962	-3279.609646
10.71	0.007149	0.087213	10.434965	35.186131	-3770.713609	-3300.766747
11.22	0.007144	0.087151	10.434528	36.450468	-3809.901593	-3310.385333
11.73	0.007120	0.087089	10.434656	38.542824	-3855.107531	-3307.562364
12.24	0.007122	0.087085	10.435161	43.713165	-3962.493342	-3296.464941
12.75	0.007112	0.087095	10.434364	44.827756	-4006.518785	-3313.986225
13.26	0.007136	0.087164	10.434117	45.246034	-4021.861067	-3319.436507
13.77	0.007127	0.087221	10.436085	40.747302	-3872.891849	-3276.119731
14.28	0.007140	0.087287	10.437384	38.330407	-3787.315459	-3247.559528
14.79	0.007124	0.087313	10.437533	35.723843	-3723.865351	-3244.270577
15.30	0.007120	0.087321	10.436310	35.892389	-3755.956068	-3271.181033
15.81	0.007082	0.087268	10.435512	35.153734	-3757.360578	-3288.740621
16.32	0.007058	0.087209	10.435039	36.012901	-3788.053823	-3299.152992
16.83	0.006984	0.087116	10.435630	33.839394	-3724.369486	-3286.131268
17.34	0.006914	0.087052	10.436603	33.091043	-3684.712294	-3264.734799
17.85	0.006802	0.086972	10.436368	32.179066	-3669.134727	-3269.900989
18.36	0.006707	0.086928	10.435804	33.142811	-3704.333328	-3282.314640
18.87	0.006595	0.086863	10.436167	33.898130	-3713.340833	-3274.321215
19.38	0.006523	0.086815	10.436950	35.698224	-3736.735501	-3257.110024
19.89	0.006446	0.086763	10.437420	36.731137	-3749.661927	-3246.759327
20.40	0.006413	0.086740	10.438415	38.160037	-3759.617516	-3224.879401
20.91	0.006369	0.086699	10.438856	37.790318	-3740.931659	-3215.173376
21.42	0.006349	0.086684	10.438625	39.935490	-3795.624579	-3220.240331
21.93	0.006317	0.086649	10.438947	38.346548	-3751.620596	-3213.155587
22.44	0.006312	0.086654	10.439097	39.007642	-3763.384775	-3209.860816
22.95	0.006288	0.086657	10.439099	37.619615	-3731.380679	-3209.811039
23.46	0.006294	0.086697	10.439392	37.969476	-3732.680332	-3203.368352
23.97	0.006280	0.086737	10.439338	37.861323	-3731.450012	-3204.569612
24.48	0.006294	0.086791	10.439280	38.697758	-3752.041911	-3205.845423
24.99	0.006287	0.086815	10.439651	37.589873	-3717.973635	-3197.675089
25.50	0.006304	0.086851	10.439061	39.204763	-3768.762731	-3210.662394
26.02	0.006285	0.086852	10.438484	37.279208	-3737.747412	-3223.359161
26.53	0.006296	0.086862	10.438313	37.662593	-3750.500214	-3227.105536
27.04	0.006276	0.086836	10.438328	37.660347	-3750.117724	-3226.789993
27.55	0.006289	0.086818	10.439248	38.705174	-3752.953884	-3206.552515
28.06	0.006276	0.086776	10.439911	38.134508	-3724.526090	-3191.966099
28.57	0.006292	0.086751	10.440158	39.676657	-3754.332018	-3186.534738
29.08	0.006281	0.086705	10.439679	37.781027	-3721.742345	-3197.072620
29.59	0.006300	0.086684	10.438524	38.473347	-3764.296887	-3222.463255
30.10	0.006281	0.086639	10.438564	37.178632	-3733.580739	-3221.593042
30.61	0.006290	0.086615	10.438879	36.858319	-3718.942354	-3214.663029
31.12	0.006273	0.086570	10.439243	37.482285	-3724.918295	-3206.662109
31.63	0.006286	0.086545	10.439744	39.286220	-3754.869802	-3195.621167
32.14	0.006275	0.086506	10.440320	36.143122	-3669.232823	-3182.949569
32.65	0.006295	0.086467	10.440874	39.091508	-3724.342506	-3170.776630
33.16	0.006285	0.086409	10.441834	34.528602	-3597.155112	-3149.646817
33.67	0.006293	0.086360	10.443556	36.537042	-3603.668409	-3111.757409
34.18	0.006283	0.086286	10.443728	34.735042	-3558.240237	-3107.992599
34.69	0.006295	0.086278	10.443290	37.993765	-3643.349376	-3117.621743
35.20	0.006279	0.086225	10.443536	36.310530	-3598.925510	-3112.207019
35.71	0.006291	0.086263	10.442997	38.777909	-3668.156124	-3124.066329
36.22	0.006283	0.086250	10.442875	37.340477	-3637.872473	-3126.742562
36.73	0.006297	0.086307	10.443416	37.676002	-3633.116299	-3114.837974
37.24	0.006287	0.086281	10.443532	37.952370	-3636.803508	-3112.286569
37.75	0.006299	0.086294	10.444288	38.872135	-3640.559948	-3095.673148
38.26	0.006282	0.086238	10.444696	39.044993	-3635.131171	-3086.698883
38.77	0.006297	0.086198	10.443893	40.614970	-3689.785375	-3104.359367
39.28	0.006287	0.086115	10.443821	39.630758	-3668.787683	-3105.941444
39.79	0.006298	0.086049	10.443623	39.357511	-3667.050895	-3110.284822
40.30	0.006287	0.085961	10.443143	37.272169	-3630.122504	-3120.849771
40.81	0.006298	0.085901	10.443703	36.945807	-3609.688189	-3108.523807
41.32	0.006288	0.085846	10.444541	36.090443	-3570.690055	-3090.105875
41.83	0.006302	0.085819	10.445150	36.869145	-3574.559712	-3076.697968
42.34	0.006286	0.085793	10.445959	36.792733	-3554.133602	-3058.891301
42.85	0.006303	0.085784	10.446516	37.314713	-3553.307802	-3046.641627
43.36	0.006285	0.085775	10.445649	36.090846	-3545.130905	-3065.716020
43.87	0.006300	0.085772	10.444114	36.519276	-3590.401057	-3099.491737
44.38	0.006286	0.085772	10.443639	35.916067	-3587.479631	-3109.950582
44.89	0.006293	0.085792	10.444333	37.160813	-3600.106960	-3094.663014
45.40	0.006282	0.085809	10.445640	37.496575	-3577.701056	-3065.917044
45.91	0.006293	0.085844	10.446561	38.943959	-3589.772613	-3045.649679
46.42	0.006275	0.085859	10.446636	38.881291	-3586.618047	-3044.016637
46.93	0.006284	0.085874	10.446143	39.488474	-3611.965731	-3054.863041
47.44	0.006266	0.085862	10.446143	38.182850	-3581.908390	-3054.860826
47.95	0.006280	0.085843	10.446644	38.538079	-3578.521258	-3043.829512
48.46	0.006266	0.085795	10.446461	37.641945	-3562.122086	-3047.864080
48.97	0.006269	0.085740	10.448976	38.265755	-3518.476155	-2992.532035
49.48	0.006256	0.085658	10.465057	38.098249	-3143.740632	-2638.748098
49.99	0.006267	0.085524	10.514008	39.520464	-2047.507760	-1561.816177
50.50	0.006258	0.085258	10.551867	39.654732	-1177.460683	-728.925515
51.01	0.006274	0.084769	10.561224	41.455734	-1003.119633	-523.073282
51.53	0.006262	0.083942	10.565370	41.544056	-909.537468	-431.865347
52.04	0.006275	0.082787	10.567442	42.523220	-884.292107	-386.282632
52.55	0.006270	0.081381	10.568190	41.329300	-839.542961	-369.812962
53.06	0.006286	0.079889	10.569000	40.681147	-805.957193	-352.007843
53.57	0.006270	0.078443	10.569182	37.963534	-739.196653	-347.999510
54.08	0.006282	0.077177	10.569507	36.289776	-693.156740	-340.835145
54.59	0.006268	0.076128	10.569983	33.136563	-609.594033	-330.364285
55.10	0.006276	0.075311	10.569903	31.672269	-577.743349	-332.135562
55.61	0.006264	0.074673	10.570124	29.665422	-526.451559	-327.275558
56.12	0.006276	0.074181	10.570074	29.125629	-515.184325	-328.380752
56.63	0.006265	0.073764	10.570277	27.350438	-469.636323	-323.912936
57.14	0.006275	0.073419	10.570467	27.044783	-458.202433	-319.717855
57.65	0.006258	0.073114	10.570563	25.137497	-412.102797	-317.624433
58.16	0.006266	0.072885	10.570674	24.847391	-402.858684	-315.176741
58.67	0.006253	0.072715	10.570700	23.190419	-364.104584	-314.593740
59.18	0.006267	0.072619	10.570972	23.095091	-355.646428	-308.618741
59.69	0.006252	0.072558	10.571164	21.823331	-321.932264	-304.384659
60.20	0.006266	0.072552	10.571016	22.886802	-349.844748	-307.658210
60.71	0.006252	0.072552	10.571361	22.274369	-327.776625	-300.055474
61.22	0.006258	0.072569	10.571517	23.495687	-352.305222	-296.635029
61.73	0.006243	0.072573	10.571754	22.728844	-329.173625	-291.408462
62.24	0.006253	0.072590	10.571503	23.603882	-355.099401	-296.924610
62.75	0.006232	0.072585	10.571176	22.668959	-341.134382	-304.132877
63.26	0.006247	0.072600	10.571654	23.338628	-345.514740	-293.606342
63.77	0.006244	0.072594	10.571551	22.252015	-322.891015	-295.885928
64.28	0.006284	0.072591	10.572210	23.327819	-332.443221	-281.374713
64.79	0.006372	0.072567	10.572398	22.659425	-312.715365	-277.233184
65.30	0.006660	0.072533	10.571951	23.497697	-342.321187	-287.067074
65.81	0.007242	0.072489	10.571758	22.530274	-324.514326	-291.324237
66.32	0.008269	0.072454	10.571954	22.957983	-329.834429	-287.007231
66.83	0.009631	0.072408	10.571973	21.595878	-298.055896	-286.603408
67.34	0.011078	0.072391	10.571860	22.103294	-312.330472	-289.077857
67.85	0.012148	0.072374	10.571959	21.523757	-296.708894	-286.902160
68.36	0.012614	0.072376	10.571996	22.102495	-309.183046	-286.093073
68.87	0.012412	0.072369	10.572144	21.418407	-290.013117	-282.828372
69.38	0.011730	0.072375	10.572983	22.349960	-292.116318	-264.379041
69.89	0.010788	0.072380	10.572954	21.658863	-276.882365	-265.022813
70.40	0.009839	0.072378	10.572643	22.135368	-295.004109	-271.845870
70.91	0.008996	0.072366	10.572202	21.270758	-285.285493	-281.560823
71.42	0.008351	0.072366	10.572169	21.840900	-299.161821	-282.278023
71.93	0.007856	0.072347	10.572352	21.077569	-277.384454	-278.266133
72.44	0.007522	0.072339	10.572469	21.971275	-295.254628	-275.688091
72.95	0.007265	0.072320	10.572463	21.040694	-273.957826	-275.807170
73.46	0.007096	0.072316	10.572422	21.608082	-287.967185	-276.711742
73.97	0.006951	0.072321	10.572420	20.968457	-273.282299	-276.749014
74.48	0.006852	0.072345	10.572509	21.727671	-288.713125	-274.797312
74.99	0.006769	0.072390	10.573271	21.312514	-261.583483	-258.034447
75.50	0.006720	0.072446	10.573464	22.158627	-276.607473	-253.786488
76.01	0.006668	0.072486	10.573114	21.557198	-270.845588	-261.496715
76.52	0.006642	0.072509	10.572951	22.579980	-298.145815	-265.079708
77.03	0.006609	0.072499	10.572756	21.592596	-279.906234	-269.362410
77.55	0.006598	0.072476	10.573118	22.492635	-292.288025	-261.409906
78.06	0.006576	0.072436	10.573683	21.424165	-254.648149	-248.967105
78.57	0.006575	0.072394	10.573856	22.027479	-264.543901	-245.158809
79.08	0.006554	0.072354	10.573389	21.457177	-262.194541	-255.440755
79.59	0.006564	0.072328	10.573327	21.946968	-274.892033	-256.797854
80.10	0.006546	0.072311	10.573381	21.213796	-256.786154	-255.625961
80.61	0.006564	0.072313	10.573506	22.256116	-277.884203	-252.863652
81.12	0.006562	0.072321	10.573736	21.762032	-261.209261	-247.806716
81.63	0.006574	0.072337	10.574048	22.889085	-279.968349	-240.952634
82.14	0.006578	0.072363	10.574183	22.237585	-261.847124	-237.972711
82.65	0.006596	0.072397	10.574160	23.194278	-284.392558	-238.471291
83.16	0.006588	0.072436	10.574529	23.220186	-276.496494	-230.370309
83.67	0.006604	0.072479	10.574528	24.160160	-298.158996	-230.393786
84.18	0.006594	0.072498	10.574190	23.667327	-294.594085	-237.815118
84.69	0.006606	0.072510	10.573653	24.244893	-320.290834	-249.644858
85.20	0.006592	0.072503	10.573937	23.293001	-291.810968	-243.379947
85.71	0.006601	0.072525	10.574804	24.065966	-289.613186	-224.310272
86.22	0.006599	0.072553	10.574854	23.454264	-274.375116	-223.206687
86.73	0.006574	0.072571	10.574438	23.851170	-293.102146	-232.355016
87.24	0.006536	0.072579	10.574175	22.969479	-278.871268	-238.140778
87.75	0.006476	0.072552	10.574101	23.749406	-298.541112	-239.777857
88.26	0.006399	0.072486	10.573784	22.712903	-281.989459	-246.749272
88.77	0.006350	0.072412	10.573881	23.175010	-290.386829	-244.612365
89.28	0.006377	0.072399	10.574328	22.615036	-267.190496	-234.781489
89.79	0.006405	0.072465	10.574598	23.657576	-284.971431	-228.850124
90.30	0.006438	0.072541	10.574868	23.321046	-270.997500	-222.910048
90.81	0.006448	0.072551	10.575031	24.046719	-283.931278	-219.312907
91.32	0.006473	0.072479	10.575048	23.087288	-261.453140	-218.938622
91.83	0.006495	0.072411	10.575122	23.753431	-275.082459	-217.312147
92.34	0.006495	0.072352	10.574392	22.944928	-273.312025	-233.376896
92.85	0.006495	0.072286	10.573811	23.380953	-296.754219	-246.164041
93.36	0.006499	0.072233	10.574127	22.308280	-264.767691	-239.206291
93.87	0.006500	0.072199	10.574368	23.015599	-275.495926	-233.908287
94.38	0.006516	0.072180	10.574238	22.119787	-257.871841	-236.767330
94.89	0.006524	0.072156	10.574557	22.826612	-266.770698	-229.735134
95.40	0.006533	0.072126	10.574960	22.321529	-245.864438	-220.883445
95.91	0.006534	0.072126	10.574130	23.189903	-285.003145	-239.149813
96.42	0.006534	0.072169	10.574438	22.828147	-269.567243	-232.369067
96.93	0.006534	0.072242	10.574481	24.366393	-303.968615	-231.407040
97.44	0.006534	0.072285	10.574399	23.723915	-291.078188	-233.218685
97.95	0.006535	0.072284	10.573488	23.932342	-316.884072	-253.258297
98.46	0.006535	0.072235	10.569822	21.382797	-342.757513	-333.923448
98.97	0.006535	0.072185	10.563971	16.134161	-356.879240	-462.646779
99.48	0.006535	0.072176	10.558233	0.763996	-135.388988	-588.872926
99.99	0.006535	0.072264	10.550393	-26.111543	302.460837	-761.354119
100.50	0.006535	0.072428	10.537886	-64.260452	892.175648	-1036.517603
101.01	0.006534	0.072656	10.528090	-102.258831	1540.961482	-1252.027523
101.52	0.006533	0.072903	10.524678	-132.397247	2156.046839	-1327.090940
102.03	0.006533	0.073150	10.523941	-149.894501	2541.833871	-1343.301391
102.54	0.006533	0.073363	10.524482	-156.331532	2702.483367	-1331.405005
103.06	0.006533	0.073568	10.525659	-152.850643	2649.505804	-1305.505229
103.57	0.006527	0.073738	10.526968	-141.611080	2420.964538	-1276.707189
104.08	0.006527	0.073900	10.527437	-123.970592	2025.708645	-1266.383925
104.59	0.006527	0.074019	10.528462	-102.911490	1564.575065	-1243.833853
105.10	0.006527	0.074104	10.531641	-80.559616	1123.350709	-1173.904852
105.61	0.006527	0.074137	10.535936	-60.544227	761.672691	-1079.402062
106.12	0.006527	0.074154	10.538416	-42.962805	414.144766	-1024.847848
106.63	0.006528	0.074181	10.539455	-29.749950	133.949630	-1001.992034
107.14	0.006528	0.074253	10.540109	-18.508398	-109.742922	-987.603200
107.65	0.006527	0.074352	10.539840	-10.460901	-301.206305	-993.529576
108.16	0.006524	0.074472	10.539836	-3.071509	-471.388880	-993.607137
108.67	0.006524	0.074568	10.540198	2.175837	-583.839069	-985.649731
109.18	0.006524	0.074661	10.540505	6.795955	-683.115585	-978.898931
109.69	0.006524	0.074717	10.540651	9.589051	-744.036554	-975.679358
110.20	0.006524	0.074785	10.541227	12.604780	-800.173308	-963.007411
110.71	0.006524	0.074863	10.541026	14.377651	-845.617594	-967.427228
111.22	0.006524	0.074962	10.540389	16.585163	-911.119668	-981.436185
111.73	0.006519	0.075051	10.540741	17.570887	-925.704976	-973.704096
112.24	0.006518	0.075117	10.540603	19.090056	-963.846109	-976.728333
112.75	0.006516	0.075140	10.540637	19.268269	-967.164041	-975.980022
113.26	0.006518	0.075145	10.540753	20.430896	-991.258456	-973.434188
113.77	0.006519	0.075150	10.540961	19.916328	-974.627307	-968.868834
114.28	0.006520	0.075166	10.541458	20.999891	-988.098073	-957.925173
114.79	0.006520	0.075197	10.541787	20.110854	-960.037840	-950.680355
115.30	0.006520	0.075237	10.541969	20.446761	-963.583337	-946.686385
115.81	0.006520	0.075248	10.541892	19.836041	-951.296320	-948.376279
116.32	0.006520	0.075262	10.540900	19.682616	-970.646829	-970.203813
116.83	0.006520	0.075248	10.540679	18.612012	-951.089037	-975.056468
117.34	0.006524	0.075225	10.540984	18.953630	-951.920537	-968.348198
117.85	0.006524	0.075167	10.541020	17.812041	-924.814255	-967.559031
118.36	0.006524	0.075103	10.540905	18.060752	-933.190663	-970.087990
118.87	0.006524	0.075014	10.540830	16.974078	-909.902068	-971.734690
119.38	0.006523	0.074949	10.540671	17.448577	-924.487607	-975.228602
119.89	0.006520	0.074893	10.540781	16.701590	-904.761815	-972.814818
120.40	0.006520	0.074877	10.540988	16.708451	-900.146725	-968.261802
120.91	0.006520	0.074873	10.541166	18.024351	-926.328018	-964.340988
121.42	0.006520	0.074898	10.541026	20.238236	-980.522497	-967.423630
121.93	0.006520	0.074921	10.540990	23.653313	-1059.980890	-968.229210
122.44	0.006520	0.074941	10.541619	28.152490	-1149.043389	-954.390886
122.95	0.006519	0.074941	10.541932	30.973029	-1206.738108	-947.491169
123.46	0.006518	0.074929	10.541607	29.307087	-1175.884312	-954.641280
123.97	0.006516	0.074898	10.541671	27.574874	-1134.529502	-953.229645
124.48	0.006516	0.074882	10.542112	25.619755	-1079.364791	-943.539351
124.99	0.006510	0.074852	10.542462	24.913136	-1055.025235	-935.838073
125.50	0.006510	0.074850	10.542232	23.517028	-1028.189074	-940.895442
126.01	0.006510	0.074842	10.542219	22.257052	-999.486613	-941.183299
126.52	0.006509	0.074845	10.542922	22.272351	-983.614032	-925.706411
127.03	0.006509	0.074838	10.543118	22.236750	-978.278333	-921.398405
127.54	0.006502	0.074821	10.542619	21.922951	-982.564826	-932.377903
128.05	0.006501	0.074769	10.542448	21.598169	-979.037013	-936.144454
128.56	0.006498	0.074710	10.542603	20.421885	-948.373664	-932.724047
129.08	0.006495	0.074623	10.542803	19.567193	-924.089842	-928.327396
129.59	0.006520	0.074545	10.542377	18.710732	-914.207654	-937.707374
130.10	0.006497	0.074472	10.541959	18.321690	-914.880884	-946.892389
130.61	0.006509	0.074423	10.542477	18.089780	-897.611075	-935.511033
131.12	0.006495	0.074383	10.542768	17.893846	-886.376561	-929.096812
131.63	0.006509	0.074364	10.542966	17.806231	-879.794204	-924.741762
132.14	0.006501	0.074352	10.542976	17.691774	-876.927932	-924.520919
132.65	0.006513	0.074356	10.543713	17.713560	-860.428565	-908.303696
133.16	0.006503	0.074360	10.544446	17.730324	-843.908848	-892.177354
133.67	0.006517	0.074364	10.544013	17.748508	-854.335320	-901.723911
134.18	0.006507	0.074354	10.543785	17.699839	-858.473928	-906.740456
134.69	0.006518	0.074345	10.544423	17.657825	-842.786383	-892.698597
135.20	0.006511	0.074330	10.544300	17.644377	-845.314371	-895.405364
135.71	0.006526	0.074350	10.543457	17.776854	-867.797924	-913.943520
136.22	0.006536	0.074375	10.543387	17.894783	-872.132257	-915.488517
136.73	0.006749	0.074425	10.543572	18.162544	-874.021870	-911.411384
137.24	0.008267	0.074457	10.543126	18.312488	-887.758366	-921.222125
137.75	0.015140	0.074480	10.542728	18.744840	-906.905155	-929.992532
138.26	0.036178	0.074449	10.542662	18.595572	-904.987313	-931.440804
138.77	0.084887	0.074411	10.542679	18.414410	-900.419878	-931.061958
139.28	0.175653	0.074353	10.542888	18.135269	-889.183599	-926.473136
139.79	0.309927	0.074316	10.542401	17.959902	-896.375537	-937.184372
140.30	0.463298	0.074293	10.541437	17.849192	-916.050836	-958.383793
140.81	0.592895	0.074292	10.541042	17.761717	-923.150184	-967.076715
141.32	0.662482	0.074276	10.541069	17.684009	-920.736726	-966.480860
141.83	0.660387	0.074262	10.541850	17.702072	-903.135520	-949.294336
142.34	0.599178	0.074233	10.543053	17.695765	-875.240930	-922.824042
142.85	0.503331	0.074203	10.544110	17.583922	-848.302230	-899.582988
143.36	0.397705	0.074163	10.543998	17.391640	-846.459606	-902.047534
143.87	0.300626	0.074136	10.542857	17.262987	-869.806912	-927.143682
144.38	0.220804	0.074102	10.541908	17.099750	-887.941165	-948.026500
144.89	0.159490	0.074099	10.541296	17.085394	-901.725741	-961.490922
145.40	0.114160	0.074100	10.541052	17.089893	-907.459637	-966.861710
145.91	0.081213	0.074123	10.541402	17.456013	-907.805022	-959.151704
146.42	0.057217	0.074143	10.542581	17.582907	-883.543496	-933.222092
146.93	0.039918	0.074163	10.543112	17.812692	-876.576146	-921.530152
147.44	0.027332	0.074175	10.542793	17.734185	-882.126327	-928.548404
147.95	0.018264	0.074188	10.541635	17.765871	-909.565268	-954.026774
148.46	0.011992	0.074200	10.540464	17.742303	-936.031727	-979.790794
148.97	0.007521	0.074218	10.540299	17.833208	-941.939830	-983.430413
149.48	0.004211	0.074219	10.540668	17.835542	-933.484004	-975.313110
149.99	0.001674	0.074228	10.540872	17.879450	-929.784122	-970.819612
150.50	-0.000378	0.074227	10.541295	17.874839	-919.927721	-961.518781
151.01	-0.002064	0.074222	10.540901	17.850609	-928.437586	-970.168456
151.52	-0.003413	0.074204	10.540377	17.590114	-934.541777	-981.711365
152.03	-0.004433	0.074183	10.539661	17.491552	-948.785706	-997.463007
152.54	-0.005091	0.074157	10.539975	17.330811	-937.832798	-990.544605
153.05	-0.005373	0.074137	10.540367	17.268167	-927.358074	-981.928284
153.56	-0.005267	0.074114	10.540134	17.179196	-930.682599	-987.053243
154.07	-0.004800	0.074094	10.540034	17.234401	-934.249956	-989.243948
154.59	-0.004006	0.074064	10.540101	17.092540	-929.436884	-987.767794
155.10	-0.002973	0.074056	10.540108	17.052173	-928.359719	-987.626691
155.61	-0.001792	0.074060	10.540210	17.073595	-926.491388	-985.374081
156.12	-0.000582	0.074099	10.540410	17.262092	-926.224514	-980.980373
156.63	0.000531	0.074152	10.540362	17.513146	-933.115542	-982.040983
157.14	0.001465	0.074236	10.540111	17.995228	-949.998216	-987.559621
157.65	0.002082	0.074302	10.540020	18.347004	-960.195415	-989.562283
158.16	0.002382	0.074369	10.539976	18.802472	-971.688106	-990.523783
158.67	0.002297	0.074415	10.539898	19.023573	-978.574092	-992.237297
159.18	0.001876	0.074447	10.540071	19.492970	-985.395174	-988.436680
159.69	0.001136	0.074465	10.540230	19.597376	-984.125915	-984.933319
160.20	0.000187	0.074493	10.540008	19.739960	-992.523843	-989.813205
160.71	-0.000894	0.074481	10.539910	19.729434	-994.542015	-991.969491
161.22	-0.001975	0.074467	10.540237	19.668554	-985.599808	-984.776305
161.73	-0.002958	0.074427	10.540724	19.823130	-977.934662	-974.070216
162.24	-0.003741	0.074388	10.540931	19.702382	-970.374690	-969.510192
162.75	-0.004248	0.074337	10.540745	19.620255	-972.772385	-973.600739
163.26	-0.004437	0.074290	10.541093	19.545157	-963.034761	-965.961015
163.77	-0.004295	0.074245	10.541711	18.002664	-913.264914	-952.356251
164.28	-0.003852	0.074213	10.541441	19.072570	-944.118429	-958.293970
164.79	-0.003164	0.074190	10.540930	18.324591	-938.699352	-969.549236
165.30	-0.002305	0.074194	10.540581	19.132330	-965.322624	-977.208521
165.81	-0.001372	0.074210	10.540349	18.406760	-953.981573	-982.322699
166.32	-0.000449	0.074245	10.540348	19.022468	-968.181156	-982.347700
166.83	0.000354	0.074273	10.540510	18.502293	-952.461841	-978.775264
167.34	0.000994	0.074299	10.540853	19.197141	-960.545822	-971.228752
167.85	0.001380	0.074299	10.541358	18.406888	-930.713412	-960.124273
168.36	0.001535	0.074294	10.541266	18.919806	-944.637539	-962.143634
168.87	0.001415	0.074252	10.541002	18.105629	-931.994882	-967.961893
169.38	0.001088	0.074220	10.540819	18.380003	-942.515562	-971.972776
169.89	0.000570	0.074190	10.540646	17.376986	-923.414774	-975.777245
170.40	-0.000040	0.074174	10.540328	16.796589	-917.405145	-982.789323
170.91	-0.000699	0.074159	10.540435	5.488827	-654.628404	-980.427523
171.42	-0.001306	0.074166	10.540196	-57.591529	791.948061	-985.685213
171.93	-0.001831	0.074166	10.539810	-185.026851	3716.564108	-994.176361
172.44	-0.002201	0.074191	10.539935	-274.137313	5770.732625	-991.432776
172.95	-0.002415	0.074180	10.541224	-310.958265	6648.072638	-963.069081
173.46	-0.002437	0.074061	10.543169	-325.108027	7018.656578	-920.275705
173.97	-0.002320	0.073583	10.544261	-330.871626	7176.510273	-896.258652
174.48	-0.002013	0.072336	10.543041	-333.414958	7206.926387	-923.092495
174.99	-0.001705	0.069705	10.546144	-334.621583	7306.252019	-854.841030
175.50	-0.001201	0.065194	10.550482	-335.220982	7420.104395	-759.398601
176.01	-0.000775	0.058699	10.549217	-335.518945	7397.798032	-787.219607
176.52	-0.000470	0.050681	10.572819	-335.653545	7945.228821	-267.978207
177.03	-0.000060	0.041921	10.608850	-335.694124	8777.152668	524.707113
177.54	0.000104	0.033282	10.680583	-335.681696	10431.255050	2102.836696
178.05	0.000191	0.025430	10.664447	-335.653322	10058.448833	1747.838011
178.56	0.000228	0.018782	10.667393	-335.638623	10126.051273	1812.647073
179.07	0.000169	0.013432	10.675381	-335.664924	10310.885223	1988.383598
179.58	-0.000080	0.009295	10.677310	-335.752501	10357.382723	2030.814737
180.09	-0.000255	0.006167	10.676685	-335.924184	10346.928284	2017.072274
180.61	-0.000431	0.003848	10.674904	-336.195574	10312.088744	1977.879327
181.12	-0.000699	0.002138	10.674882	-336.624347	10321.470697	1977.413572
181.63	-0.000785	0.000896	10.674903	-337.274662	10336.921187	1977.871886
182.14	-0.000947	-0.000007	10.674910	-338.311148	10360.927268	1978.011658
182.65	-0.001007	-0.000648	10.674914	-339.991389	10399.706868	1978.108039
183.16	-0.001031	-0.001114	10.674918	-342.932307	10467.496477	1978.194543
183.67	-0.000958	-0.001447	10.674923	-349.054208	10608.532174	1978.301018
184.18	-0.000958	-0.001692	10.674919	-369.924678	11088.867239	1978.209426
184.69	-0.000831	-0.001857	10.674928	-184.544310	6821.699297	1978.423786
185.20	-0.000783	-0.001968	10.674937	-308.465570	9674.525293	1978.615503
185.71	-0.000763	-0.002014	10.674939	-319.835702	9936.298664	1978.650640
186.22	-0.000664	-0.002022	10.674938	-324.027412	10032.784846	1978.645329
186.73	-0.000664	-0.001975	10.674935	-326.161333	10081.834023	1978.575748
187.24	-0.000606	-0.001921	10.674912	-327.114074	10103.236816	1978.071158
187.75	-0.000657	-0.001840	10.735234	-327.369049	11500.305298	3305.142998
188.26	-0.000594	-0.001768	10.720713	-326.775138	11151.736678	2985.683056
188.77	-0.000662	-0.001697	10.732796	-325.048238	11390.661970	3251.515362
189.28	-0.000594	-0.001648	10.733363	-320.958228	11309.581363	3263.982907
189.79	-0.000603	-0.001596	10.727093	-310.426147	10922.527471	3126.039662
190.30	-0.000527	-0.001572	10.745706	-253.744894	10047.025070	3535.532671
190.81	-0.000519	-0.001552	10.760149	-429.751978	14431.737785	3853.268759
191.32	-0.000417	-0.001543	10.761650	-371.259408	13119.880387	3886.294450
191.83	-0.000344	-0.001546	10.755906	-361.539901	12763.663424	3759.923727
192.34	-0.000325	-0.001567	10.766570	-358.881910	12948.440718	3994.549411
192.85	-0.000180	-0.001586	10.751895	-359.907418	12633.591532	3671.694485
193.36	-0.000277	-0.001622	10.752859	-365.362492	12781.402757	3692.906740
193.87	-0.000170	-0.001653	10.757453	-383.820394	13312.230750	3793.957162
194.38	-0.000324	-0.001705	10.760530	-624.126099	18914.962698	3861.662309
194.89	-0.000295	-0.001736	10.758498	-277.548364	10889.994761	3816.955613
195.40	-0.000466	-0.001768	10.756356	-310.294106	11594.389403	3769.831619
195.91	-0.000497	-0.001792	10.754730	-319.343822	11765.199645	3734.049564
196.42	-0.000610	-0.001815	10.752346	-323.123169	11797.216765	3681.601794
196.93	-0.000694	-0.001814	10.749298	-324.939979	11768.744005	3614.546942
197.44	-0.000704	-0.001811	10.752154	-325.528505	11848.174159	3677.392591
197.95	-0.000786	-0.001790	10.731368	-325.262761	11362.661225	3220.094678
198.46	-0.000725	-0.001765	10.709582	-323.962434	10830.269669	2740.796993
198.97	-0.000736	-0.001719	10.751827	-321.302105	11743.340010	3670.196452
199.48	-0.000622	-0.001670	10.756546	-315.624342	11721.471864	3774.011863
199.99	-0.000568	-0.001594	10.757700	-301.962553	11433.607582	3799.410000
200.50	-0.000435	-0.001518	10.753560	-232.484915	9738.770758	3708.326028
201.01	-0.000363	-0.001452	10.751139	-466.569096	15071.472395	3655.063650
201.52	-0.000266	-0.001403	10.755331	-382.435736	13231.432330	3747.288235
202.03	-0.000176	-0.001362	10.759902	-369.189666	13031.931445	3847.848073
202.54	-0.000174	-0.001360	10.749830	-366.030033	12726.901482	3626.259460
203.05	-0.000071	-0.001368	10.751747	-368.542006	12828.939894	3668.435094
203.56	-0.000171	-0.001400	10.760183	-378.550788	13253.887655	3854.016381
204.07	-0.000110	-0.001419	10.732954	-416.147000	13491.364850	3254.988094
204.58	-0.000262	-0.001435	10.724709	792.056496	-14511.212182	3073.606995
205.09	-0.000266	-0.001425	10.685985	-274.496502	9147.370202	2221.671689
205.60	-0.000410	-0.001429	10.749305	-304.063425	11288.353287	3614.719038
206.12	-0.000453	-0.001429	10.743828	-313.870762	11387.786243	3494.213558
206.63	-0.000535	-0.001439	10.748986	-317.848884	11598.333388	3607.701675
207.14	-0.000597	-0.001432	10.759526	-319.743856	11885.039787	3839.581494
207.65	-0.000591	-0.001443	10.760469	-319.773229	11907.445266	3860.309217
208.16	-0.000626	-0.001435	10.742228	-318.946817	11467.732744	3459.012034
208.67	-0.000566	-0.001438	10.747195	-315.953899	11513.404683	3568.298910
209.18	-0.000553	-0.001422	10.749184	-312.197254	11472.793878	3612.050612
209.69	-0.000471	-0.001403	10.743238	-301.757204	11095.320887	3481.225769
210.20	-0.000428	-0.001352	10.751693	-283.716281	10875.039655	3667.251215
210.71	-0.000346	-0.001335	10.754378	-249.500031	10149.322508	3726.325826
211.22	-0.000296	-0.001313	10.756893	350.729188	-3609.757075	3781.644403
211.73	-0.000238	-0.001330	10.763028	-737.807786	21589.488056	3916.618513
212.24	-0.000194	-0.001343	10.762771	-558.867847	17464.429736	3910.969343
212.75	-0.000226	-0.001376	10.759055	-527.158114	16648.783668	3829.220771
213.26	-0.000134	-0.001395	10.770368	-596.708600	18510.723714	4078.105711
213.77	-0.000238	-0.001415	10.749096	214.720145	-658.701917	3610.107009
214.28	-0.000214	-0.001450	10.750663	-160.214679	8008.319440	3644.590652
214.79	-0.000281	-0.001458	10.751574	-232.404538	9691.103369	3664.620820
215.30	-0.000311	-0.001497	10.758338	-271.248122	10741.265139	3813.425953
215.81	-0.000386	-0.001491	10.758733	-278.866623	10925.764517	3822.129468
216.32	-0.000387	-0.001502	10.737581	-288.645698	10663.031785	3356.772899
216.83	-0.000434	-0.001470	10.738599	-292.608242	10777.725589	3379.168111
217.34	-0.000464	-0.001448	10.730194	-294.357793	10624.153671	3194.257439
217.85	-0.000448	-0.001406	10.736657	-292.388591	10727.880341	3336.443685
218.36	-0.000459	-0.001359	10.751021	-293.905398	11094.080842	3652.457294
218.87	-0.000437	-0.001303	10.752591	-289.221100	11022.472400	3687.010113
219.38	-0.000414	-0.001249	10.751141	-288.367857	10969.384763	3655.105559
219.89	-0.000384	-0.001204	10.745505	-288.916972	10852.040015	3531.112030
220.40	-0.000351	-0.001156	10.746648	-283.838982	10761.513458	3556.263672
220.91	-0.000319	-0.001134	10.750481	-284.845875	10873.076194	3640.574002
221.42	-0.000282	-0.001110	10.750693	-280.998079	10789.400168	3645.247105
221.93	-0.000276	-0.001113	10.754958	-285.272865	10986.157224	3739.066490
222.44	-0.000247	-0.001099	10.713453	-280.439574	9917.681504	2825.974202
222.95	-0.000262	-0.001103	10.705809	-286.192044	9873.798333	2657.797833
223.46	-0.000237	-0.001096	10.722054	-280.528514	10118.080540	3015.182881
223.97	-0.000272	-0.001114	10.737790	-280.496664	10480.273473	3361.379926
224.48	-0.000254	-0.001125	10.766954	-271.508240	10945.971978	4002.985042
224.99	-0.000311	-0.001165	10.757795	-267.995863	10653.890693	3801.493993
225.50	-0.000287	-0.001190	10.735521	-249.064508	9704.377310	3311.453796
226.01	-0.000335	-0.001221	10.753855	-227.270917	9625.533754	3714.800596
226.52	-0.000331	-0.001226	10.756937	-220.140381	9532.482464	3782.614861
227.03	-0.000360	-0.001246	10.751539	-122.203615	7153.505594	3663.847943
227.54	-0.000345	-0.001237	10.750460	-198.771773	8891.212667	3640.128393
228.05	-0.000363	-0.001251	10.757037	-107.512963	6942.146834	3784.817429
228.56	-0.000342	-0.001235	10.745709	-218.905080	9245.081521	3535.587080
229.07	-0.000337	-0.001241	10.738449	-206.621723	8794.900300	3375.881863
229.58	-0.000326	-0.001217	10.727560	-256.635608	9695.054748	3136.310431
230.09	-0.000312	-0.001221	10.755191	-261.510756	10444.543895	3744.200683
230.60	-0.000292	-0.001209	10.752176	-276.333292	10716.219867	3677.872081
231.11	-0.000298	-0.001221	10.752131	-283.281105	10875.106910	3676.871210
231.62	-0.000279	-0.001211	10.756979	-284.504650	11015.096089	3783.540322
232.14	-0.000272	-0.001208	10.751184	-290.244020	11013.568458	3656.054757
232.65	-0.000265	-0.001177	10.748185	-287.479578	10880.760785	3590.072019
233.16	-0.000263	-0.001155	10.748378	-289.179155	10924.332504	3594.315025
233.67	-0.000256	-0.001118	10.749813	-282.035621	10792.995243	3625.893528
234.18	-0.000275	-0.001100	10.761698	-277.673977	10966.696612	3887.363607
234.69	-0.000260	-0.001063	10.761458	-261.750827	10594.605754	3882.073836
235.20	-0.000287	-0.001060	10.760636	-246.970361	10235.416644	3863.999388
235.71	-0.000278	-0.001044	10.754660	-215.551953	9374.354187	3732.530811
236.22	-0.000302	-0.001044	10.749955	-152.345293	7810.836662	3629.011282
236.73	-0.000282	-0.001040	10.751191	-151.309966	7815.499139	3656.193129
237.24	-0.000311	-0.001046	10.742014	121.647183	1320.467646	3454.297901
237.75	-0.000286	-0.001033	10.739878	-149.291349	7508.123476	3407.311879
238.26	-0.000309	-0.001037	10.746838	-43.296090	5228.668599	3560.432459
238.77	-0.000288	-0.001017	10.755217	-216.984808	9420.164035	3744.765607
239.28	-0.000290	-0.001010	10.754364	-219.643670	9461.700145	3726.002319
239.79	-0.000282	-0.000989	10.751955	-262.757032	10398.601427	3673.009477
240.30	-0.000278	-0.000994	10.750034	-269.680814	10513.670833	3630.738423
240.81	-0.000264	-0.001002	10.748598	-279.686667	10710.883850	3599.146728
241.32	-0.000273	-0.001031	10.748578	-284.288649	10816.366250	3598.713976
241.83	-0.000257	-0.001056	10.751218	-282.406759	10833.925453	3656.787411
242.34	-0.000265	-0.001098	10.765821	-283.386893	11193.285692	3978.060626
242.85	-0.000254	-0.001117	10.765401	-276.623262	11027.912743	3968.830195
243.36	-0.000258	-0.001158	10.763710	-272.792158	10900.719653	3931.625604
243.87	-0.000240	-0.001169	10.759400	-260.689884	10522.730315	3836.808271
244.38	-0.000260	-0.001184	10.753542	-251.716181	10181.045309	3707.922879
244.89	-0.000241	-0.001169	10.748958	-232.431276	9631.404292	3607.086434
245.40	-0.000269	-0.001161	10.759288	-215.495048	9479.772681	3834.339595
245.91	-0.000251	-0.001117	10.752863	-191.699879	8783.824471	3692.978918
246.42	-0.000271	-0.001068	10.749580	-165.826130	8112.522441	3620.770987
246.93	-0.000246	-0.001006	10.754439	-199.059936	8989.600484	3727.653382
247.44	-0.000270	-0.000984	10.749049	-108.212916	6774.021148	3609.071515
247.95	-0.000243	-0.000973	10.747726	-210.472957	9097.509795	3579.975021
248.46	-0.000271	-0.001015	10.742192	-189.889826	8496.055608	3458.220915
248.97	-0.000251	-0.001059	10.755198	-220.513269	9500.952617	3744.350295
249.48	-0.000259	-0.001096	10.759391	-228.023544	9770.556400	3836.611820
249.99	-0.000260	-0.001091	10.755359	-249.851983	10180.044125	3747.902969
250.50	-0.000259	-0.001078	10.754763	-251.124225	10195.573954	3734.780335
251.01	-0.000242	-0.001015	10.757924	-265.191879	10592.320388	3804.333235
251.52	-0.000251	-0.000975	10.753183	-272.579083	10653.025458	3700.027689
252.03	-0.000229	-0.000925	10.752501	-273.712595	10663.391005	3685.025120
252.54	-0.000239	-0.000919	10.750507	-275.704262	10663.249681	3641.156168
253.05	-0.000231	-0.000922	10.747735	-272.303891	10521.032087	3580.161348
253.56	-0.000242	-0.000953	10.727409	-266.244309	9912.760865	3132.988080
254.07	-0.000227	-0.000955	10.756606	-260.555671	10455.182782	3775.321455
254.58	-0.000249	-0.000989	10.753305	-250.185595	10140.340709	3702.704027
255.09	-0.000236	-0.000981	10.751058	-242.050842	9901.268045	3653.278946
255.60	-0.000244	-0.000991	10.750023	-228.492213	9565.283312	3630.509477
256.11	-0.000233	-0.000972	10.750982	-228.216408	9581.047689	3651.603489
256.62	-0.000244	-0.000970	10.761423	-215.403093	9526.900370	3881.314130
257.13	-0.000227	-0.000950	10.751004	-224.989407	9507.265548	3652.082655
257.65	-0.000251	-0.000948	10.747420	-213.183376	9152.836449	3573.234481
258.16	-0.000226	-0.000926	10.752625	-231.690718	9698.907623	3687.739803
258.67	-0.000245	-0.000914	10.757474	-225.713157	9673.148706	3794.426911
259.18	-0.000221	-0.000886	10.760547	-249.099773	10282.375829	3862.035148
259.69	-0.000237	-0.000867	10.768508	-243.828707	10344.645403	4037.179493
260.20	-0.000225	-0.000848	10.772272	-259.130187	10783.694563	4119.992109
260.71	-0.000235	-0.000867	10.764061	-256.271939	10528.529688	3939.352083
261.22	-0.000227	-0.000887	10.758601	-261.240715	10516.978519	3819.226143
261.73	-0.000225	-0.000933	10.755780	-253.669088	10277.627133	3757.169727
262.24	-0.000214	-0.000967	10.741677	-255.007175	9983.164676	3446.898023
262.75	-0.000225	-0.001012	10.752952	-245.697295	10028.881901	3694.939565
263.26	-0.000212	-0.001013	10.746356	-244.231600	9843.028086	3549.837230
263.77	-0.000226	-0.001022	10.746265	-240.147539	9746.902556	3547.822726
264.28	-0.000210	-0.000996	10.753417	-238.529462	9874.616100	3705.179973
264.79	-0.000221	-0.000979	10.753663	-233.359894	9761.273355	3710.578067
265.30	-0.000206	-0.000957	10.753227	-237.952376	9856.933046	3700.984013
265.81	-0.000223	-0.000949	10.755339	-231.710101	9761.949480	3747.450122
266.32	-0.000202	-0.000924	10.732949	-232.057060	9253.558531	3254.874690
266.83	-0.000224	-0.000921	10.732158	-229.443269	9175.139165	3237.465159
267.34	-0.000201	-0.000899	10.726366	-231.283540	9083.926469	3110.047192
267.85	-0.000218	-0.000909	10.720663	-227.334191	8861.487495	2984.583570
268.36	-0.000204	-0.000913	10.731356	-234.532853	9273.811106	3219.828855
268.87	-0.000220	-0.000943	10.746150	-224.947205	9394.343614	3545.292533
269.38	-0.000209	-0.000960	10.748618	-233.625949	9651.044092	3599.587631
269.89	-0.000221	-0.000974	10.745692	-228.831048	9473.203633	3535.233885
270.40	-0.000202	-0.000972	10.749097	-237.481865	9750.856331	3610.128637
270.91	-0.000215	-0.000961	10.755674	-231.792474	9771.574985	3754.823156
271.42	-0.000192	-0.000925	10.758881	-245.371531	10158.133075	3825.386230
271.93	-0.000203	-0.000906	10.758975	-239.312301	10020.823934	3827.458351
272.44	-0.000190	-0.000873	10.756692	-249.854302	10210.836409	3777.224971
272.95	-0.000201	-0.000870	10.757990	-243.928920	10104.372984	3805.781874
273.46	-0.000189	-0.000862	10.761610	-245.241807	10218.088335	3885.426410
273.97	-0.000195	-0.000875	10.712501	-241.286987	8994.434381	2805.018860
274.48	-0.000178	-0.000881	10.679962	-239.010073	8191.563605	2089.154109
274.99	-0.000195	-0.000901	10.671492	-231.611388	7825.904830	1902.814896
275.50	-0.000176	-0.000902	10.664591	-234.974293	7744.168476	1751.001573
276.01	-0.000201	-0.000918	10.673748	-226.469202	7759.569033	1952.451877
276.52	-0.000178	-0.000918	10.673427	-229.906806	7831.292318	1945.384222
277.03	-0.000198	-0.000930	10.674871	-223.828776	7724.685187	1977.155966
277.54	-0.000188	-0.000918	10.670543	-227.072863	7699.563730	1881.956978
278.05	-0.000198	-0.000907	10.691340	-219.957877	8015.404301	2339.473816
278.56	-0.000182	-0.000863	10.746384	-234.585008	9621.595652	3550.437048
279.07	-0.000199	-0.000836	10.756652	-229.615157	9744.012918	3776.342321
279.58	-0.000180	-0.000802	10.748829	-245.228012	9922.993047	3604.236420
280.09	-0.000193	-0.000793	10.754390	-239.338440	9915.662302	3726.570160
280.60	-0.000175	-0.000787	10.751192	-247.411965	10027.763903	3656.221389
281.11	-0.000180	-0.000795	10.752001	-237.087055	9808.747706	3674.020974
281.62	-0.000163	-0.000789	10.753609	-246.967962	10073.289333	3709.398015
282.13	-0.000175	-0.000788	10.755314	-236.789282	9878.290797	3746.897155
282.64	-0.000165	-0.000764	10.767663	-250.072740	10468.877943	4018.575508
283.15	-0.000185	-0.000759	10.772685	-243.494323	10433.276456	4129.067700
283.67	-0.000170	-0.000737	10.754873	-249.291076	10155.914260	3737.202089
284.18	-0.000188	-0.000742	10.744634	-249.031756	9913.814348	3511.956042
284.69	-0.000173	-0.000734	10.750280	-249.489195	10054.553023	3636.162684
285.20	-0.000182	-0.000745	10.749912	-241.931041	9872.078379	3628.065432
285.71	-0.000172	-0.000733	10.753149	-246.868747	10060.388793	3699.270728
286.22	-0.000181	-0.000736	10.760149	-237.937371	10016.242730	3853.279802
286.73	-0.000160	-0.000726	10.756777	-243.071959	10056.660072	3779.085912
287.24	-0.000181	-0.000737	10.750929	-238.444650	9815.269286	3650.431109
287.75	-0.000163	-0.000724	10.747762	-244.724569	9886.791854	3580.758808
288.26	-0.000173	-0.000722	10.751554	-238.681461	9835.149036	3664.194463
288.77	-0.000158	-0.000688	10.751270	-251.915185	10133.234546	3657.946116
289.28	-0.000174	-0.000685	10.754773	-247.417306	10110.489696	3735.016676
289.79	-0.000158	-0.000678	10.743026	-251.396083	9931.145821	3476.571378
290.30	-0.000175	-0.000716	10.738715	-242.267638	9621.593752	3381.735674
290.81	-0.000164	-0.000751	10.726105	-242.066738	9326.140943	3104.313212
291.32	-0.000176	-0.000786	10.694054	-230.001229	8309.205463	2399.194609
291.83	-0.000158	-0.000779	10.696815	-240.994289	8625.931953	2459.929754
292.34	-0.000174	-0.000762	10.695110	-232.791751	8397.782991	2422.413282
292.85	-0.000155	-0.000716	10.695112	-246.879266	8722.117093	2422.455564
293.36	-0.000167	-0.000678	10.695099	-242.319540	8616.855265	2422.170830
293.87	-0.000157	-0.000643	10.695100	-253.441572	8872.910920	2422.199721
294.38	-0.000171	-0.000649	10.695101	-247.807532	8743.239852	2422.221291
294.89	-0.000161	-0.000660	10.695113	-250.376628	8802.647513	2422.476883
295.40	-0.000175	-0.000721	10.695132	-238.915871	8539.281266	2422.912310
295.91	-0.000157	-0.000765	10.695123	-231.904712	8377.665338	2422.701054
296.42	-0.000171	-0.000826	10.695914	-217.631614	8067.346245	2440.102917
296.93	-0.000154	-0.000853	10.749726	-219.961625	9362.064243	3623.977272
297.44	-0.000171	-0.000872	10.747154	-209.257776	9056.350942	3567.397017
297.95	-0.000146	-0.000868	10.745092	-218.155133	9213.593884	3522.018628
298.46	-0.000161	-0.000863	10.752289	-209.709063	9185.161296	3680.360257
298.97	-0.000143	-0.000845	10.752582	-218.650746	9397.741876	3686.795373
299.48	-0.000157	-0.000848	10.749510	-209.374880	9113.363275	3619.209929
299.99	-0.000141	-0.000839	10.750904	-220.469141	9400.907012	3649.885282
300.50	-0.000162	-0.000852	10.749784	-206.560707	9054.904823	3625.241330
301.01	-0.000146	-0.000839	10.746642	-221.246039	9320.497484	3556.122651
301.52	-0.000164	-0.000823	10.745836	-209.909789	9040.943079	3538.382103
302.03	-0.000151	-0.000765	10.759410	-228.584021	9783.896635	3837.029872
302.54	-0.000163	-0.000701	10.765708	-230.681760	9977.436587	3975.585264
303.05	-0.000144	-0.000614	10.754557	-251.187119	10192.278833	3730.256053
303.56	-0.000162	-0.000551	10.757857	-255.623811	10370.527239	3802.864693
304.07	-0.000144	-0.000499	10.746227	-267.525620	10376.264024	3546.990350
304.58	-0.000159	-0.000491	10.726107	-262.336461	9792.785067	3104.353327
305.09	-0.000144	-0.000490	10.717214	-266.974577	9694.458680	2908.712893
305.60	-0.000159	-0.000505	10.733423	-256.096586	9817.880905	3265.311090
306.11	-0.000142	-0.000507	10.749086	-260.058120	10270.300742	3609.887044
306.62	-0.000157	-0.000514	10.752039	-253.520933	10187.925983	3674.856629
307.13	-0.000136	-0.000481	10.749581	-263.269425	10355.652493	3620.788854
307.64	-0.000152	-0.000468	10.747081	-260.681917	10238.416270	3565.774601
308.15	-0.000130	-0.000440	10.753758	-267.873929	10557.976133	3712.678093
308.66	-0.000154	-0.000432	10.753492	-262.356074	10424.823553	3706.827374
309.18	-0.000141	-0.000426	10.752368	-269.844727	10571.294781	3682.106915
309.69	-0.000152	-0.000454	10.750993	-257.643948	10258.725081	3651.856738
310.20	-0.000140	-0.000484	10.748837	-262.846690	10328.745351	3604.404668
310.71	-0.000157	-0.000529	10.751704	-245.406443	9993.409703	3667.489146
311.22	-0.000140	-0.000573	10.756752	-247.702530	10162.676260	3778.534593
311.73	-0.000159	-0.000635	10.763604	-232.716916	9975.755234	3929.292313
312.24	-0.000139	-0.000665	10.761136	-233.309946	9932.484085	3874.993647
312.75	-0.000148	-0.000692	10.760661	-219.566401	9605.157696	3864.543919
313.26	-0.000132	-0.000671	10.757183	-232.851674	9830.772722	3788.033657
313.77	-0.000150	-0.000651	10.727425	-224.828489	8959.751961	3133.340188
314.28	-0.000135	-0.000613	10.741776	-239.052118	9618.159263	3449.067713
314.79	-0.000151	-0.000589	10.755579	-232.645748	9789.021849	3752.729128
315.30	-0.000140	-0.000558	10.759355	-241.402742	10077.692006	3835.802007
315.81	-0.000150	-0.000558	10.760126	-231.176583	9860.086364	3852.778685
316.32	-0.000133	-0.000557	10.762481	-238.948199	10093.290788	3904.580013
316.83	-0.000146	-0.000572	10.768282	-230.110064	10023.641453	4032.213951
317.34	-0.000126	-0.000582	10.762902	-239.835861	10123.441915	3913.849543
317.85	-0.000140	-0.000603	10.757966	-227.555635	9726.914239	3805.255963
318.36	-0.000126	-0.000615	10.755973	-236.073954	9877.037839	3761.409533
318.87	-0.000144	-0.000631	10.755452	-224.233046	9592.436727	3749.936464
319.38	-0.000124	-0.000609	10.752482	-233.894837	9746.359649	3684.605239
319.89	-0.000142	-0.000581	10.752892	-232.358731	9720.442136	3693.613076
320.40	-0.000122	-0.000531	10.751099	-246.713386	10009.535939	3654.173447
320.91	-0.000135	-0.000495	10.748746	-241.629122	9838.236085	3602.412804
321.42	-0.000120	-0.000452	10.749633	-260.093095	10283.729713	3621.929022
321.93	-0.000139	-0.000438	10.736636	-254.377001	9852.399725	3335.998400
322.44	-0.000126	-0.000405	10.767967	-265.108569	10822.015774	4025.270192
322.95	-0.000144	-0.000386	10.770673	-261.836194	10809.106381	4084.812535
323.46	-0.000136	-0.000354	10.757762	-274.653407	10806.385120	3800.769057
323.97	-0.000148	-0.000352	10.761127	-268.615722	10744.999067	3874.791509
324.48	-0.000131	-0.000352	10.754638	-275.515290	10754.169740	3732.034816
324.99	-0.000148	-0.000391	10.754218	-263.754674	10473.748094	3722.785481
325.50	-0.000135	-0.000429	10.753003	-262.071842	10406.995389	3696.062327
326.01	-0.000149	-0.000484	10.748520	-242.311587	9848.722613	3597.429996
326.52	-0.000133	-0.000500	10.741462	-248.445033	9827.148288	3442.168450
327.03	-0.000145	-0.000509	10.731289	-235.761804	9300.566090	3218.364570
327.54	-0.000123	-0.000479	10.724164	-248.417748	9427.570526	3061.608332
328.05	-0.000135	-0.000477	10.743442	-243.416918	9757.055179	3485.716479
328.56	-0.000118	-0.000481	10.749351	-250.258254	10050.824083	3615.718181
329.07	-0.000132	-0.000538	10.752652	-233.603105	9743.561099	3688.341696
329.58	-0.000114	-0.000587	10.768472	-233.637406	10109.201141	4036.374396
330.09	-0.000132	-0.000644	10.758379	-209.924042	9330.556218	3814.332576
330.60	-0.000118	-0.000668	10.754961	-215.698034	9384.643862	3739.138457
331.11	-0.000133	-0.000695	10.754968	-197.552828	8967.120641	3739.303672
331.62	-0.000115	-0.000690	10.750346	-212.036725	9193.925054	3637.607909
332.13	-0.000142	-0.000709	10.751982	-186.225000	8637.483276	3673.603819
332.64	-0.000123	-0.000707	10.750504	-201.134762	8946.612351	3641.086577
333.15	-0.000140	-0.000713	10.755633	-181.934125	8622.905583	3753.919540
333.66	-0.000125	-0.000705	10.768256	-197.653492	9275.890863	4031.630734
334.17	-0.000135	-0.000701	10.720052	-183.197840	7831.383771	2971.133489
334.69	-0.000120	-0.000666	10.635760	-209.749178	6498.553051	1116.710121
335.20	-0.000132	-0.000639	10.681611	-201.540897	7367.067946	2125.433001
335.71	-0.000122	-0.000590	10.695908	-225.990962	8259.645081	2439.978429
336.22	-0.000133	-0.000565	10.695265	-220.835586	8126.130916	2425.823266
336.73	-0.000116	-0.000542	10.694995	-234.408847	8432.365954	2419.893035
337.24	-0.000130	-0.000569	10.694997	-214.416022	7972.190940	2419.943581
