Length [m]	OTDR [V]	Brillouin intensity [V]	Fitted Frequency [GHz]	Temperature [”]	Compensated Strain [レュ]	Uncompensated Strain [レュ]
0.51	0.007077	0.041761	10.508624	-152.335945	2242.490559	-1680.261248
1.02	0.007101	0.045607	10.482638	-129.252711	1111.802671	-2251.955397
1.53	0.007146	0.048831	10.461525	-92.546853	-220.091757	-2716.448173
2.04	0.007153	0.051473	10.448046	-54.551938	-1405.595827	-3012.992570
2.55	0.007106	0.053647	10.441010	-28.100616	-2176.755908	-3167.772932
3.06	0.007113	0.055461	10.437830	-15.491645	-2540.356520	-3237.738447
3.57	0.007075	0.056987	10.436079	-22.029105	-2430.260798	-3276.270844
4.08	0.007076	0.058300	10.435622	-26.840301	-2330.037710	-3286.314504
4.59	0.007065	0.059387	10.435447	-16.554776	-2570.835902	-3290.157719
5.10	0.007108	0.060276	10.435692	5.809909	-3080.029460	-3284.783568
5.61	0.007095	0.060968	10.435604	26.203600	-3551.511874	-3286.716767
6.12	0.007116	0.061480	10.435999	35.736839	-3761.849432	-3278.022544
6.63	0.007082	0.061841	10.436273	27.451081	-3564.784695	-3271.984880
7.14	0.007088	0.062123	10.435578	11.884377	-3222.473694	-3287.275218
7.65	0.007051	0.062337	10.435104	0.591826	-2973.464558	-3297.712402
8.16	0.007079	0.062519	10.435108	5.608460	-3088.854632	-3297.625474
8.67	0.007085	0.062679	10.434757	22.486892	-3485.484338	-3305.346365
9.18	0.007141	0.062784	10.435223	44.031147	-3970.687772	-3295.103377
9.69	0.007140	0.062793	10.435771	57.345605	-4264.544242	-3283.048110
10.20	0.007140	0.062718	10.434692	58.789161	-4322.653040	-3306.779976
10.71	0.007081	0.062606	10.435231	48.792642	-4080.094941	-3294.911819
11.22	0.007057	0.062497	10.435347	41.419539	-3907.694427	-3292.360867
11.73	0.007014	0.062417	10.434233	41.626829	-3938.153565	-3316.864211
12.24	0.007040	0.062393	10.433076	51.622319	-4194.945191	-3342.332386
12.75	0.007061	0.062413	10.432271	59.894301	-4403.913658	-3360.027581
13.26	0.007113	0.062424	10.433023	61.969356	-4434.344432	-3343.490425
13.77	0.007092	0.062395	10.434228	52.462692	-4187.712151	-3316.979378
14.28	0.007084	0.062356	10.434814	41.265870	-3916.454497	-3304.091497
14.79	0.007021	0.062325	10.434571	31.433736	-3695.722299	-3309.433520
15.30	0.007014	0.062337	10.434508	27.428440	-3604.976463	-3310.821174
15.81	0.006982	0.062405	10.433879	26.552468	-3599.332765	-3324.672725
16.32	0.007005	0.062502	10.433826	29.029979	-3657.567634	-3325.820659
16.83	0.006961	0.062594	10.434109	28.529407	-3639.523966	-3319.600554
17.34	0.006901	0.062616	10.434423	28.264571	-3626.184259	-3312.691156
17.85	0.006762	0.062570	10.434659	28.231582	-3619.986162	-3307.503165
18.36	0.006652	0.062496	10.433961	31.587906	-3713.352510	-3322.865720
18.87	0.006509	0.062403	10.433905	33.841947	-3766.515377	-3324.082541
19.38	0.006442	0.062338	10.434457	37.558616	-3839.359826	-3311.956485
19.89	0.006386	0.062292	10.434955	37.773349	-3832.800559	-3300.984356
20.40	0.006385	0.062235	10.435712	43.187700	-3939.987140	-3284.338775
20.91	0.006343	0.062148	10.436695	43.375344	-3921.621554	-3262.699345
21.42	0.006323	0.062023	10.437032	44.852288	-3947.867834	-3255.304234
21.93	0.006251	0.061888	10.437719	50.782960	-4068.538467	-3240.183498
22.44	0.006231	0.061787	10.438154	47.257536	-3977.359260	-3230.620452
22.95	0.006183	0.061739	10.437470	44.344999	-3926.069790	-3245.650305
23.46	0.006208	0.061757	10.437497	43.289448	-3901.156060	-3245.063366
23.97	0.006217	0.061813	10.437784	34.840409	-3700.040384	-3238.746907
24.48	0.006262	0.061878	10.438462	33.500230	-3653.560116	-3223.837548
24.99	0.006252	0.061923	10.438404	34.563201	-3679.370879	-3225.117258
25.50	0.006263	0.061941	10.438217	34.413633	-3680.238884	-3229.229550
26.02	0.006215	0.061956	10.437997	35.216649	-3703.802805	-3234.074209
26.53	0.006226	0.061977	10.437522	35.740993	-3726.818965	-3244.515592
27.04	0.006201	0.062015	10.438156	32.354857	-3634.255951	-3230.573960
27.55	0.006235	0.062063	10.438254	34.381328	-3678.629940	-3228.404142
28.06	0.006249	0.062105	10.437379	33.331442	-3674.654203	-3247.665662
28.57	0.006275	0.062107	10.437864	35.206382	-3706.631320	-3236.997798
29.08	0.006255	0.062049	10.438474	39.881127	-3800.178911	-3223.582608
29.59	0.006253	0.061964	10.438566	41.153011	-3827.317081	-3221.541096
30.10	0.006206	0.061869	10.438227	41.510334	-3843.365610	-3229.003558
30.61	0.006213	0.061796	10.437227	43.456352	-3911.236706	-3251.014374
31.12	0.006195	0.061759	10.437056	37.111077	-3769.107130	-3254.769402
31.63	0.006229	0.061739	10.437882	39.776155	-3811.407246	-3236.598406
32.14	0.006233	0.061711	10.438751	37.143449	-3730.758134	-3217.477263
32.65	0.006258	0.061682	10.439721	38.722328	-3744.723240	-3196.128718
33.16	0.006225	0.061632	10.439892	39.534747	-3759.484849	-3192.370344
33.67	0.006233	0.061605	10.440782	42.223247	-3800.857037	-3172.799865
34.18	0.006202	0.061566	10.441920	39.255568	-3706.302409	-3147.769699
34.69	0.006227	0.061564	10.442235	39.127868	-3696.099277	-3140.840993
35.20	0.006228	0.061565	10.441775	37.842942	-3677.128272	-3150.959601
35.71	0.006264	0.061568	10.441667	35.487085	-3625.384968	-3153.332638
36.22	0.006258	0.061537	10.442842	34.917188	-3585.165156	-3127.480887
36.73	0.006274	0.061496	10.443161	37.150828	-3629.223025	-3120.460382
37.24	0.006236	0.061442	10.442191	36.437212	-3635.175588	-3141.808531
37.75	0.006243	0.061418	10.442086	38.293431	-3680.319025	-3144.111185
38.26	0.006214	0.061416	10.442522	38.252958	-3669.318305	-3134.506272
38.77	0.006237	0.061454	10.442674	39.047293	-3684.104476	-3131.168416
39.28	0.006236	0.061492	10.442533	37.012963	-3640.520886	-3134.264767
39.79	0.006262	0.061541	10.442740	37.996643	-3658.409055	-3129.728186
40.30	0.006248	0.061564	10.442920	37.057610	-3632.640547	-3125.767286
40.81	0.006257	0.061585	10.443207	38.980131	-3670.262970	-3119.439707
41.32	0.006223	0.061582	10.443668	38.619212	-3651.334198	-3109.308726
41.83	0.006233	0.061585	10.443813	40.609211	-3693.797538	-3106.117183
42.34	0.006209	0.061584	10.444202	39.106914	-3650.244307	-3097.559832
42.85	0.006234	0.061593	10.444679	38.881025	-3634.029654	-3087.052779
43.36	0.006230	0.061590	10.444491	35.867584	-3569.008559	-3091.199697
43.87	0.006251	0.061564	10.444148	35.794603	-3575.234719	-3098.741404
44.38	0.006228	0.061522	10.444046	35.494176	-3570.680370	-3100.993932
44.89	0.006242	0.061468	10.444012	38.295650	-3635.941602	-3101.730605
45.40	0.006215	0.061395	10.445146	39.155711	-3629.598266	-3076.793961
45.91	0.006235	0.061329	10.446105	41.036892	-3650.770469	-3055.682178
46.42	0.006214	0.061263	10.445793	39.249237	-3616.830390	-3062.560924
46.93	0.006251	0.061219	10.444832	37.815327	-3605.978736	-3083.696077
47.44	0.006226	0.061173	10.444616	34.818452	-3541.979109	-3088.453587
47.95	0.006243	0.061164	10.445077	35.867983	-3555.499922	-3078.304960
48.46	0.006217	0.061169	10.445320	36.324363	-3560.410971	-3072.968196
48.97	0.006226	0.061201	10.446693	39.883788	-3610.679446	-3042.759670
49.48	0.006202	0.061230	10.452731	40.431594	-3484.037265	-2909.926020
49.99	0.006221	0.061235	10.473398	42.193487	-3047.952881	-2455.254243
50.50	0.006204	0.061159	10.506444	40.445435	-2245.557136	-1728.229597
51.01	0.006226	0.060964	10.536921	41.676039	-1571.000254	-1057.744042
51.53	0.006207	0.060576	10.559357	42.544231	-1073.541468	-564.151331
52.04	0.006230	0.059996	10.563590	46.617358	-1069.667424	-471.015828
52.55	0.006205	0.059238	10.566346	48.028902	-1038.614138	-410.398453
53.06	0.006221	0.058374	10.568350	50.799615	-1056.164866	-366.299281
53.57	0.006203	0.057468	10.569472	48.743280	-982.950751	-341.614145
54.08	0.006220	0.056598	10.570279	46.232148	-906.539940	-323.866351
54.59	0.006206	0.055773	10.570150	40.635081	-780.678891	-326.710434
55.10	0.006225	0.055038	10.570099	38.146927	-724.566369	-327.820709
55.61	0.006204	0.054384	10.570319	34.826664	-643.059764	-322.979377
56.12	0.006217	0.053845	10.570588	35.377587	-649.540910	-317.064284
56.63	0.006194	0.053386	10.570382	33.391341	-608.559594	-321.587109
57.14	0.006210	0.053033	10.570180	33.840037	-623.566171	-326.049240
57.65	0.006187	0.052763	10.570293	30.452712	-542.975405	-323.554117
58.16	0.006203	0.052577	10.570621	28.573340	-492.151971	-316.341711
58.67	0.006183	0.052445	10.570636	25.069904	-411.150865	-316.004785
59.18	0.006209	0.052351	10.570532	24.962676	-411.093356	-318.304483
59.69	0.006186	0.052274	10.571162	23.827382	-370.410094	-304.425953
60.20	0.006206	0.052211	10.570865	26.154750	-430.849042	-310.973310
60.71	0.006186	0.052131	10.570547	24.933800	-410.084504	-317.976210
61.22	0.006206	0.052065	10.571338	25.946712	-415.156988	-300.572779
61.73	0.006185	0.052004	10.571697	23.547495	-351.648146	-292.674752
62.24	0.006207	0.051952	10.571899	22.374345	-319.974510	-288.221795
62.75	0.006188	0.051904	10.572210	20.541465	-270.601507	-281.372060
63.26	0.006206	0.051878	10.571851	21.539960	-301.885689	-289.288681
63.77	0.006189	0.051851	10.571876	21.417323	-298.475691	-288.728806
64.28	0.006235	0.051837	10.572347	24.060717	-348.460137	-278.364066
64.79	0.006313	0.051828	10.572758	23.595989	-328.282987	-269.321743
65.30	0.006616	0.051856	10.572592	24.872835	-361.513351	-272.982652
65.81	0.007199	0.051885	10.572637	23.094183	-319.532214	-271.993287
66.32	0.008276	0.051924	10.572026	23.125736	-334.333945	-285.419866
66.83	0.009672	0.051945	10.571721	21.832873	-311.612692	-292.135383
67.34	0.011174	0.051940	10.571883	23.657354	-349.872445	-288.568558
67.85	0.012267	0.051909	10.571894	23.001884	-334.530225	-288.326725
68.36	0.012750	0.051881	10.571908	24.614365	-371.340678	-288.032611
68.87	0.012520	0.051854	10.572001	22.994118	-331.880550	-285.969714
69.38	0.011825	0.051865	10.571700	22.986723	-338.666499	-292.605247
69.89	0.010840	0.051884	10.571710	21.017163	-293.082766	-292.371404
70.40	0.009879	0.051925	10.572203	21.696432	-297.357708	-281.533516
70.91	0.009004	0.051961	10.572097	20.979910	-283.309615	-283.866779
71.42	0.008356	0.051987	10.572850	23.350197	-320.498056	-267.292903
71.93	0.007841	0.051991	10.573241	23.003896	-303.513628	-258.695654
72.44	0.007507	0.051996	10.572360	24.688334	-362.601047	-278.071588
72.95	0.007233	0.051984	10.572262	23.267877	-332.175082	-280.239317
73.46	0.007063	0.051987	10.572699	23.359374	-324.209982	-270.632225
73.97	0.006902	0.051971	10.572846	21.767758	-284.172560	-267.389921
74.48	0.006807	0.051973	10.573034	22.598711	-298.955259	-263.244688
74.99	0.006712	0.051962	10.573478	21.962476	-274.068713	-253.476095
75.50	0.006670	0.051962	10.573435	23.938583	-320.550803	-254.423104
76.01	0.006603	0.051967	10.572859	23.414557	-321.781158	-267.103606
76.52	0.006589	0.051982	10.572294	24.924080	-369.565428	-279.538294
77.03	0.006556	0.051996	10.572800	23.542493	-326.083480	-268.398315
77.55	0.006559	0.052026	10.573036	23.996121	-331.088840	-263.211951
78.06	0.006530	0.052057	10.573031	23.002149	-308.317911	-263.316843
78.57	0.006544	0.052091	10.573183	24.567832	-340.859815	-259.978558
79.08	0.006512	0.052094	10.573398	23.774928	-317.632663	-255.233099
79.59	0.006518	0.052066	10.573175	25.166970	-354.826120	-260.144891
80.10	0.006493	0.052000	10.572164	23.525881	-340.365031	-282.386346
80.61	0.006509	0.051927	10.572115	24.234989	-357.822995	-283.468586
81.12	0.006490	0.051857	10.572418	21.619294	-290.615396	-276.795828
81.63	0.006523	0.051817	10.572527	22.746177	-314.052996	-274.408344
82.14	0.006513	0.051790	10.572790	21.605264	-281.722615	-268.621040
82.65	0.006541	0.051770	10.573002	22.941627	-307.593615	-263.954904
83.16	0.006528	0.051735	10.573000	22.184793	-290.209087	-263.990709
83.67	0.006550	0.051701	10.572323	23.335821	-332.332355	-278.897379
84.18	0.006525	0.051671	10.572700	22.063885	-294.348447	-270.594218
84.69	0.006538	0.051681	10.573330	23.067378	-302.922724	-256.737999
85.20	0.006520	0.051709	10.573313	22.019401	-279.202026	-257.122778
85.71	0.006540	0.051789	10.573558	23.684491	-311.871219	-251.723110
86.22	0.006531	0.051886	10.573433	22.999420	-298.989185	-254.478040
86.73	0.006523	0.051946	10.573348	24.907060	-344.864106	-256.349324
87.24	0.006478	0.051967	10.573671	24.093926	-318.686168	-249.233304
87.75	0.006423	0.051919	10.573652	24.832328	-336.126516	-249.655488
88.26	0.006325	0.051847	10.573013	23.334672	-316.387027	-263.712278
88.77	0.006282	0.051780	10.573257	23.656943	-318.190894	-258.356398
89.28	0.006300	0.051814	10.573395	22.816948	-295.659326	-255.308503
89.79	0.006333	0.051955	10.573366	25.026340	-347.183117	-255.942228
90.30	0.006374	0.052088	10.573490	25.158683	-347.384927	-253.228666
90.81	0.006393	0.052141	10.573366	26.912880	-390.625001	-255.955934
91.32	0.006400	0.052033	10.572830	25.175729	-362.992403	-267.742398
91.83	0.006428	0.051928	10.572361	25.821584	-388.681603	-278.065408
92.34	0.006432	0.051823	10.572444	24.129109	-347.810527	-276.242610
92.85	0.006432	0.051749	10.572544	24.781438	-360.508428	-274.031008
93.36	0.006432	0.051691	10.572786	22.878911	-311.138099	-268.713155
93.87	0.006433	0.051641	10.573587	23.854833	-315.120686	-251.082330
94.38	0.006456	0.051593	10.573489	22.343834	-282.601405	-253.241379
94.89	0.006463	0.051510	10.573158	22.952344	-304.242499	-260.522926
95.40	0.006465	0.051398	10.573520	20.996994	-250.878914	-252.555825
95.91	0.006475	0.051326	10.573099	21.741195	-277.716367	-261.814614
96.42	0.006475	0.051319	10.572481	20.371250	-260.433233	-275.410187
96.93	0.006475	0.051387	10.572462	21.996069	-298.274202	-275.828162
97.44	0.006475	0.051475	10.572450	21.521158	-287.623138	-276.096429
97.95	0.006480	0.051535	10.572190	22.966464	-326.892754	-281.819060
98.46	0.006480	0.051533	10.570725	20.255656	-298.274822	-314.045738
98.97	0.006480	0.051485	10.567107	15.512490	-272.528091	-393.638942
99.48	0.006480	0.051430	10.562730	-1.076752	8.398515	-489.937624
99.99	0.006480	0.051440	10.557490	-28.338195	515.099424	-605.215318
100.50	0.006480	0.051510	10.549661	-68.308317	1254.626043	-777.463800
101.01	0.006477	0.051629	10.540944	-106.754645	1938.619283	-969.225509
101.52	0.006477	0.051757	10.533498	-137.397598	2472.273908	-1133.045038
102.03	0.006477	0.051882	10.528404	-154.867929	2756.953929	-1245.110787
102.54	0.006475	0.052004	10.526128	-161.403531	2854.909735	-1295.182698
103.06	0.006475	0.052154	10.524874	-157.633369	2739.188627	-1322.782301
103.57	0.006474	0.052336	10.524723	-146.344519	2475.858963	-1326.086803
104.08	0.006470	0.052542	10.525362	-128.053829	2069.546398	-1312.033049
104.59	0.006470	0.052727	10.526768	-106.789726	1612.471669	-1281.109706
105.10	0.006470	0.052881	10.528982	-83.532458	1128.160172	-1232.400572
105.61	0.006470	0.052969	10.532358	-63.317187	740.674936	-1158.126302
106.12	0.006470	0.053009	10.535645	-45.043224	395.836338	-1085.799528
106.63	0.006471	0.053039	10.537549	-31.799471	134.868611	-1043.924100
107.14	0.006474	0.053099	10.538050	-19.836621	-128.959315	-1032.903828
107.65	0.006474	0.053180	10.538411	-11.672367	-308.574596	-1024.964444
108.16	0.006471	0.053296	10.539382	-3.310778	-478.647681	-1003.589491
108.67	0.006470	0.053371	10.539903	1.843364	-585.287470	-992.136151
109.18	0.006470	0.053420	10.540319	6.981056	-693.955132	-982.978417
109.69	0.006470	0.053408	10.540751	9.084324	-732.421889	-973.487305
110.20	0.006470	0.053377	10.540872	12.415235	-806.290403	-970.808801
110.71	0.006470	0.053351	10.540751	12.969566	-821.841829	-973.471077
111.22	0.006470	0.053364	10.540845	14.806647	-861.981259	-971.420622
111.73	0.006462	0.053410	10.541352	14.957537	-853.752054	-960.257403
112.24	0.006461	0.053475	10.540957	16.983427	-909.489668	-968.940164
112.75	0.006459	0.053537	10.541327	16.636015	-892.964160	-960.805063
113.26	0.006459	0.053611	10.541899	18.880892	-931.444817	-948.217664
113.77	0.006459	0.053673	10.541953	18.925355	-931.230698	-947.037082
114.28	0.006461	0.053746	10.541775	20.781558	-978.059701	-950.947931
114.79	0.006461	0.053810	10.541353	20.348321	-977.811429	-960.224382
115.30	0.006461	0.053867	10.541427	21.794528	-1009.415971	-958.615461
115.81	0.006461	0.053887	10.541194	20.105622	-975.904767	-963.734925
116.32	0.006461	0.053879	10.541014	20.611638	-991.706051	-967.696461
116.83	0.006459	0.053833	10.541322	18.741943	-941.555099	-960.913037
117.34	0.006461	0.053785	10.541667	19.165617	-943.345836	-953.317954
117.85	0.006461	0.053740	10.541594	17.626820	-909.617917	-954.934513
118.36	0.006462	0.053716	10.541131	18.851423	-948.478885	-965.113638
118.87	0.006461	0.053705	10.540859	18.076722	-936.917231	-971.096248
119.38	0.006459	0.053697	10.540855	18.969171	-957.561007	-971.191546
119.89	0.006459	0.053688	10.540469	17.811150	-939.812917	-979.690047
120.40	0.006459	0.053679	10.540230	18.285695	-956.235802	-984.935579
120.91	0.006459	0.053651	10.540590	18.522250	-953.392515	-977.028961
121.42	0.006459	0.053636	10.541088	20.893716	-996.490207	-966.066060
121.93	0.006459	0.053616	10.541125	23.842297	-1063.516484	-965.256155
122.44	0.006459	0.053604	10.541290	29.349942	-1186.494122	-961.625144
122.95	0.006458	0.053601	10.541522	31.888487	-1239.582169	-956.523291
123.46	0.006457	0.053624	10.541585	30.994199	-1217.537410	-955.131970
123.97	0.006455	0.053645	10.541095	29.208065	-1187.729164	-965.918665
124.48	0.006455	0.053671	10.541130	26.997790	-1136.028678	-965.135784
124.99	0.006451	0.053663	10.541904	25.877152	-1092.374233	-948.101191
125.50	0.006449	0.053650	10.542128	25.368343	-1075.499265	-943.176794
126.01	0.006448	0.053620	10.544055	23.603678	-990.449542	-900.796954
126.52	0.006447	0.053594	10.548871	23.186854	-869.765079	-794.828288
127.03	0.006439	0.053568	10.553557	23.006930	-757.550447	-691.737046
127.54	0.006439	0.053549	10.554376	22.879292	-735.729171	-673.724369
128.05	0.006436	0.053522	10.554341	22.655223	-731.381092	-674.496949
128.56	0.006433	0.053496	10.556818	21.193463	-640.611254	-620.009302
129.08	0.006431	0.053440	10.558645	20.432558	-580.949526	-579.806052
129.59	0.006462	0.053381	10.558117	19.911361	-581.125158	-591.418343
130.10	0.006434	0.053292	10.557880	18.743237	-559.705442	-596.636301
130.61	0.006444	0.053212	10.559456	18.206970	-511.024833	-561.975278
131.12	0.006428	0.053141	10.561080	17.728567	-462.544369	-526.234563
131.63	0.006458	0.053105	10.559866	17.490791	-485.084103	-552.956538
132.14	0.006446	0.053072	10.559109	17.029437	-491.902573	-569.591382
132.65	0.006475	0.053055	10.560696	16.921889	-452.837995	-534.689079
133.16	0.006457	0.053034	10.561841	16.776810	-423.085484	-509.493734
133.67	0.006466	0.053016	10.560302	16.656561	-455.808559	-543.348955
134.18	0.006442	0.052992	10.559754	16.497087	-464.791823	-555.419946
134.69	0.006457	0.052983	10.561508	16.434407	-422.880970	-516.817326
135.20	0.006445	0.052979	10.561242	16.555718	-431.814113	-522.674886
135.71	0.006474	0.052988	10.559306	16.638858	-478.382185	-565.270774
136.22	0.006486	0.052984	10.559511	16.607164	-472.915176	-560.751722
136.73	0.006795	0.052973	10.561537	16.602219	-426.075550	-516.179756
137.24	0.009010	0.052932	10.561703	16.328397	-415.951028	-512.534655
137.75	0.019240	0.052897	10.559838	16.163546	-455.164405	-553.560380
138.26	0.050486	0.052846	10.560155	16.016943	-444.486800	-546.594169
138.77	0.123141	0.052803	10.561701	15.728645	-402.197011	-512.584336
139.28	0.258707	0.052774	10.562031	15.536454	-390.157754	-505.320259
139.79	0.459087	0.052758	10.559776	15.428738	-439.686575	-554.931343
140.30	0.687702	0.052742	10.558221	15.320182	-473.051662	-589.142192
140.81	0.880675	0.052739	10.559093	15.278340	-451.972517	-569.953496
141.32	0.983514	0.052726	10.558663	15.020818	-455.960726	-579.412681
141.83	0.979673	0.052712	10.557365	14.923541	-483.667576	-607.978449
142.34	0.888381	0.052688	10.558750	14.939799	-452.079788	-577.489693
142.85	0.746158	0.052676	10.561138	14.877966	-395.586118	-524.957863
143.36	0.589512	0.052669	10.560206	14.831595	-416.025557	-545.473383
143.87	0.445457	0.052671	10.558568	14.847849	-454.166796	-581.499596
144.38	0.327214	0.052667	10.559348	14.819419	-435.534550	-564.350485
144.89	0.236582	0.052674	10.560680	14.867940	-405.918553	-535.034175
145.40	0.169487	0.052677	10.559285	14.889278	-438.582345	-565.723769
145.91	0.120653	0.052701	10.557707	15.532210	-489.777669	-600.441390
146.42	0.085183	0.052733	10.558809	15.802127	-470.575993	-576.197828
146.93	0.059417	0.052773	10.560573	16.155093	-438.031220	-537.402561
147.44	0.040826	0.052793	10.559702	16.287988	-461.178806	-556.564993
147.95	0.027537	0.052799	10.558317	16.328450	-494.036161	-587.019308
148.46	0.018078	0.052769	10.558480	16.048108	-483.840768	-583.449767
148.97	0.011409	0.052733	10.559227	15.801334	-460.931610	-567.015408
149.48	0.006484	0.052687	10.558099	15.492504	-479.832456	-591.826482
149.99	0.002686	0.052648	10.557189	15.234072	-494.862991	-611.838993
150.50	-0.000404	0.052615	10.559244	15.010231	-442.318375	-566.631652
151.01	-0.002951	0.052604	10.560210	15.015949	-420.163831	-545.372756
151.52	-0.005016	0.052597	10.558188	14.891876	-463.939977	-589.855503
152.03	-0.006578	0.052611	10.556799	14.982382	-498.062448	-620.417733
152.54	-0.007615	0.052618	10.557606	14.974497	-479.274702	-602.669141
153.05	-0.008065	0.052631	10.558260	15.120666	-467.545041	-588.270495
153.56	-0.007939	0.052620	10.555778	15.127179	-524.957892	-642.893895
154.07	-0.007241	0.052614	10.551571	15.113588	-621.667460	-735.444081
154.59	-0.006061	0.052607	10.548205	15.072346	-698.334874	-809.483137
155.10	-0.004492	0.052610	10.545728	15.092506	-755.938970	-863.989280
155.61	-0.002715	0.052624	10.544183	15.187213	-793.745535	-897.973519
156.12	-0.000864	0.052649	10.542954	15.352054	-825.879806	-925.006900
156.63	0.000847	0.052667	10.541354	15.471079	-865.519951	-960.206220
157.14	0.002291	0.052703	10.540740	15.735880	-885.771335	-973.709463
157.65	0.003272	0.052746	10.541046	16.085213	-886.775870	-966.996843
158.16	0.003773	0.052803	10.540564	16.557817	-908.773183	-977.602487
158.67	0.003668	0.052851	10.540773	16.906988	-911.978415	-972.992681
159.18	0.003054	0.052902	10.540923	17.491163	-921.966147	-969.692373
159.69	0.001945	0.052928	10.540212	17.774321	-944.890019	-985.341826
160.20	0.000514	0.052961	10.539901	18.015427	-957.614010	-992.184967
160.71	-0.001129	0.052976	10.540583	18.160640	-945.211710	-977.165682
161.22	-0.002776	0.052993	10.540849	18.721152	-951.989759	-971.323256
161.73	-0.004277	0.052988	10.540471	18.733939	-961.006441	-979.643523
162.24	-0.005471	0.052986	10.540609	18.876905	-961.100140	-976.593583
162.75	-0.006261	0.052977	10.540629	18.943672	-962.176230	-976.153968
163.26	-0.006561	0.052988	10.540667	19.158370	-966.246865	-975.322493
163.77	-0.006384	0.052999	10.540785	17.491234	-925.158685	-972.736198
164.28	-0.005735	0.053021	10.540986	19.190510	-959.626135	-968.301202
164.79	-0.004715	0.053025	10.540619	18.673948	-956.201455	-976.377341
165.30	-0.003427	0.053036	10.540514	19.636963	-980.793514	-978.689395
165.81	-0.002023	0.053034	10.540804	17.963559	-935.581372	-972.306871
166.32	-0.000622	0.053053	10.540713	18.783111	-956.547528	-974.310400
166.83	0.000607	0.053058	10.540098	17.209272	-934.502817	-987.841096
167.34	0.001590	0.053078	10.539798	18.320200	-966.999734	-994.445670
167.85	0.002196	0.053087	10.539911	17.909905	-954.943799	-991.954940
168.36	0.002438	0.053103	10.539657	19.314939	-993.144610	-997.542368
168.87	0.002270	0.053105	10.540047	18.501191	-965.426354	-988.970508
169.38	0.001793	0.053118	10.540697	19.252382	-967.712583	-974.656288
169.89	0.001019	0.053122	10.540944	17.656575	-925.280987	-969.222213
170.40	0.000104	0.053123	10.541067	17.034864	-908.148865	-966.531673
170.91	-0.000889	0.053121	10.540871	0.850332	-540.092103	-970.829610
171.42	-0.001820	0.053119	10.540660	-82.546484	1374.788670	-975.489819
171.93	-0.002640	0.053103	10.540514	-218.630358	4504.033651	-978.694228
172.44	-0.003212	0.053085	10.540806	-292.770874	6217.462265	-972.265583
172.95	-0.003548	0.053029	10.540835	-319.712556	6838.328243	-971.619134
173.46	-0.003620	0.052898	10.541610	-329.526915	7082.108680	-954.585016
173.97	-0.003356	0.052550	10.542387	-333.432697	7189.938649	-937.490835
174.48	-0.002982	0.051766	10.543557	-335.133448	7256.075085	-911.749012
174.99	-0.002426	0.050245	10.544083	-335.924188	7286.415784	-900.170382
175.50	-0.001727	0.047749	10.546112	-336.293183	7341.710582	-855.527013
176.01	-0.001141	0.044189	10.546526	-336.442596	7354.683718	-846.432749
176.52	-0.000562	0.039714	10.545091	-336.460078	7321.986137	-878.007018
177.03	-0.000037	0.034610	10.556799	-336.387164	7590.334002	-620.427542
177.54	0.000239	0.029266	10.594600	-336.245693	8458.891707	211.200560
178.05	0.000397	0.024007	10.597570	-336.061337	8523.148908	276.544024
178.56	0.000449	0.019107	10.598491	-335.866052	8539.898760	296.809983
179.07	0.000221	0.014726	10.597507	-335.698795	8513.351097	275.158753
179.58	0.000061	0.010973	10.597806	-335.590408	8517.739636	281.725021
180.09	-0.000298	0.007868	10.600274	-335.570269	8574.201589	336.026600
180.61	-0.000608	0.005402	10.601239	-335.647849	8598.250478	357.263412
181.12	-0.000905	0.003484	10.597720	-335.855555	8521.877834	279.850223
181.63	-0.001168	0.002064	10.597608	-336.206200	8527.344533	277.365268
182.14	-0.001335	0.001012	10.597821	-336.805927	8546.062407	282.051203
182.65	-0.001443	0.000259	10.597716	-337.778595	8566.043098	279.752485
183.16	-0.001454	-0.000281	10.597655	-339.469508	8603.559749	278.409774
183.67	-0.001424	-0.000673	10.597817	-342.905081	8686.390855	281.982523
184.18	-0.001352	-0.000971	10.597787	-354.087773	8943.107049	281.309508
184.69	-0.001237	-0.001179	10.598017	-211.765745	5672.218899	286.380694
185.20	-0.001033	-0.001332	10.598402	-318.808872	8145.181993	294.838914
185.71	-0.001053	-0.001419	10.598349	-326.120254	8312.272404	293.679819
186.22	-0.000836	-0.001456	10.598458	-328.794849	8376.357842	296.080951
186.73	-0.000806	-0.001450	10.598649	-330.134414	8411.594435	300.278406
187.24	-0.000817	-0.001431	10.597938	-330.702259	8408.262530	284.631005
187.75	-0.000718	-0.001385	10.598062	-330.827370	8414.013797	287.369921
188.26	-0.000777	-0.001350	10.598797	-330.310473	8419.068735	303.542166
188.77	-0.000788	-0.001304	10.598805	-329.065141	8390.567658	303.700556
189.28	-0.000717	-0.001268	10.599085	-326.152967	8329.993329	309.865559
189.79	-0.000709	-0.001231	10.597901	-318.729498	8131.795680	283.812567
190.30	-0.000697	-0.001201	10.597230	-278.074014	7180.447996	269.053418
190.81	-0.000619	-0.001162	10.597657	-397.943509	9949.661694	278.457900
191.32	-0.000608	-0.001125	10.597440	-359.716486	9064.679651	273.679742
191.83	-0.000504	-0.001096	10.597178	-352.934018	8902.516649	267.924916
192.34	-0.000480	-0.001084	10.597329	-350.865654	8858.375604	271.236875
192.85	-0.000421	-0.001093	10.597248	-351.331916	8867.249069	269.462870
193.36	-0.000424	-0.001146	10.595133	-354.680588	8895.560084	222.936846
193.87	-0.000468	-0.001205	10.597767	-365.298030	9200.716841	280.883585
194.38	-0.000514	-0.001275	10.598029	-446.060144	11065.857396	286.630230
194.89	-0.000663	-0.001328	10.597173	-287.354892	7392.785368	267.808321
195.40	-0.000637	-0.001364	10.596999	-317.084264	8073.126473	263.974704
195.91	-0.000863	-0.001377	10.597262	-324.429411	8248.274246	269.760130
196.42	-0.000855	-0.001369	10.597339	-327.540001	8321.661410	271.460416
196.93	-0.000933	-0.001350	10.597559	-329.045933	8361.393101	276.292570
197.44	-0.001026	-0.001322	10.597718	-329.653975	8379.066567	279.799649
197.95	-0.000962	-0.001273	10.595120	-329.747010	8321.293297	222.646524
198.46	-0.000973	-0.001226	10.595100	-329.125497	8306.522447	222.204074
198.97	-0.000922	-0.001157	10.595108	-327.754121	8275.145302	222.386709
199.48	-0.000802	-0.001096	10.595112	-324.516005	8200.687055	222.464991
199.99	-0.000700	-0.001039	10.597803	-316.110020	8069.240409	281.660758
200.50	-0.000596	-0.001003	10.599755	-268.413782	7016.303740	324.600239
201.01	-0.000447	-0.000997	10.598425	-409.719642	10238.441192	295.339113
201.52	-0.000373	-0.001025	10.597000	-366.356834	9207.397732	264.006708
202.03	-0.000253	-0.001064	10.597764	-359.425519	9065.450383	280.804176
202.54	-0.000220	-0.001127	10.597546	-358.451188	9037.990594	276.005042
203.05	-0.000195	-0.001172	10.597806	-360.796175	9097.985311	281.741758
203.56	-0.000231	-0.001198	10.598018	-367.405979	9255.016686	286.392945
204.07	-0.000312	-0.001194	10.597821	-389.243788	9753.185668	282.071846
204.58	-0.000379	-0.001172	10.598714	-828.123411	19876.637301	301.715454
205.09	-0.000537	-0.001125	10.598175	-283.499044	7327.124112	289.842625
205.60	-0.000562	-0.001088	10.597814	-312.459005	7985.444627	281.898617
206.12	-0.000724	-0.001039	10.598602	-321.327527	8207.771186	299.236994
206.63	-0.000740	-0.001011	10.598214	-324.739382	8277.364680	290.703120
207.14	-0.000800	-0.000981	10.598344	-326.401272	8318.623909	293.567787
207.65	-0.000834	-0.000954	10.598716	-326.967259	8340.243848	301.762906
208.16	-0.000801	-0.000924	10.597837	-326.450090	8308.043920	282.403512
208.67	-0.000780	-0.000905	10.597908	-325.237454	8281.787477	283.985118
209.18	-0.000706	-0.000892	10.597435	-322.450546	8206.719380	273.573782
209.69	-0.000632	-0.000898	10.597746	-315.840974	8061.737998	280.412041
210.20	-0.000545	-0.000900	10.597312	-304.195015	7783.636509	270.858223
210.71	-0.000458	-0.000918	10.597915	-267.484896	6952.505022	284.139340
211.22	-0.000381	-0.000939	10.598594	750.493549	-16465.364376	299.064302
211.73	-0.000341	-0.000958	10.598267	-512.313719	12596.492269	291.876929
212.24	-0.000264	-0.000989	10.598190	-446.587770	11081.715427	290.171359
212.75	-0.000276	-0.001013	10.597938	-436.322661	10839.603339	284.626509
213.26	-0.000277	-0.001048	10.597959	-543.716087	13312.246646	285.087600
213.77	-0.000286	-0.001058	10.598555	-1095.506767	26028.037208	298.211316
214.28	-0.000359	-0.001047	10.598583	-185.914189	5090.168685	298.823202
214.79	-0.000401	-0.001015	10.597952	-265.960439	6918.245644	284.934040
215.30	-0.000455	-0.000971	10.598287	-291.836646	7521.635141	292.305872
215.81	-0.000519	-0.000932	10.598272	-303.763835	7795.868576	291.994534
216.32	-0.000563	-0.000902	10.597515	-309.085662	7900.908906	275.333346
216.83	-0.000593	-0.000887	10.597305	-311.720950	7956.715410	270.700293
217.34	-0.000616	-0.000879	10.597760	-312.189051	7977.991940	280.717248
217.85	-0.000610	-0.000894	10.597851	-311.138483	7955.920760	282.732416
218.36	-0.000605	-0.000903	10.597690	-309.414840	7912.517788	279.178828
218.87	-0.000580	-0.000931	10.598331	-305.731005	7842.495948	293.276383
219.38	-0.000543	-0.000957	10.598392	-298.187919	7670.264869	294.619648
219.89	-0.000504	-0.000984	10.597955	-297.835015	7652.065343	285.008310
220.40	-0.000460	-0.001009	10.598430	-286.000659	7390.599436	295.460171
220.91	-0.000426	-0.001028	10.596556	-283.045923	7279.369697	254.239316
221.42	-0.000399	-0.001041	10.595101	-283.108760	7247.241002	222.211790
221.93	-0.000337	-0.001047	10.595104	-275.101659	7062.993857	222.281972
222.44	-0.000363	-0.001036	10.597575	-280.575284	7245.984432	276.644645
222.95	-0.000324	-0.001013	10.598013	-282.595725	7302.611316	286.295337
223.46	-0.000305	-0.000966	10.598004	-279.918450	7240.761368	286.085465
223.97	-0.000382	-0.000912	10.597683	-282.575635	7294.522794	279.020785
224.48	-0.000339	-0.000860	10.597892	-284.874164	7352.258435	283.622712
224.99	-0.000397	-0.000816	10.597905	-281.157735	7267.017355	283.918268
225.50	-0.000418	-0.000793	10.597289	-281.831791	7268.307396	270.347534
226.01	-0.000435	-0.000778	10.598114	-271.339258	7045.813245	288.510237
226.52	-0.000447	-0.000757	10.599870	-269.954011	7054.415925	327.134438
227.03	-0.000479	-0.000736	10.599879	-262.492347	6882.864647	327.338251
227.54	-0.000464	-0.000708	10.599895	-265.970518	6963.301669	327.691882
228.05	-0.000482	-0.000689	10.599899	-274.592852	7161.870882	327.773958
228.56	-0.000475	-0.000682	10.599890	-280.908000	7307.048022	327.587556
229.07	-0.000456	-0.000685	10.598107	-293.614399	7558.423497	288.361554
229.58	-0.000463	-0.000706	10.598645	-290.281881	7494.104071	300.184257
230.09	-0.000413	-0.000739	10.598336	-301.246975	7739.399260	293.394810
230.60	-0.000417	-0.000769	10.597665	-299.352561	7680.306413	278.624473
231.11	-0.000378	-0.000802	10.596958	-301.109489	7704.461706	263.086703
231.62	-0.000374	-0.000830	10.597353	-303.279171	7763.512063	271.772016
232.14	-0.000340	-0.000853	10.598095	-299.925355	7703.417954	288.092953
232.65	-0.000340	-0.000885	10.597643	-298.926259	7669.993615	278.148030
233.16	-0.000339	-0.000901	10.597375	-295.971399	7595.780033	272.239799
233.67	-0.000318	-0.000909	10.597577	-289.176718	7444.028813	276.685015
234.18	-0.000361	-0.000903	10.598107	-282.395129	7300.154937	288.356977
234.69	-0.000327	-0.000897	10.598661	-273.085054	7098.609796	300.537956
235.20	-0.000360	-0.000894	10.598641	-251.704413	6605.988355	300.112145
235.71	-0.000367	-0.000887	10.598105	-235.145824	6212.437015	288.304427
236.22	-0.000376	-0.000891	10.598867	-185.689783	5091.550878	305.069326
236.73	-0.000375	-0.000882	10.598645	-164.027559	4587.786736	300.197583
237.24	-0.000395	-0.000860	10.598123	-147.418514	4193.406146	288.706785
237.75	-0.000389	-0.000837	10.597844	-181.262337	4966.052381	282.576040
238.26	-0.000397	-0.000812	10.597296	-225.331863	5967.875493	270.516494
238.77	-0.000402	-0.000786	10.595098	-248.369807	6447.509369	222.161400
239.28	-0.000380	-0.000765	10.595095	-276.517433	7095.379828	222.086742
239.79	-0.000388	-0.000739	10.595091	-281.324226	7205.931476	221.992225
240.30	-0.000350	-0.000721	10.595099	-295.162630	7524.679299	222.175853
240.81	-0.000365	-0.000707	10.595106	-296.911955	7565.115900	222.335865
241.32	-0.000338	-0.000697	10.595072	-300.576982	7648.689626	221.578513
241.83	-0.000344	-0.000692	10.595062	-302.412378	7690.726284	221.374832
242.34	-0.000332	-0.000706	10.595063	-300.156160	7638.795165	221.380798
242.85	-0.000328	-0.000725	10.595065	-298.055048	7590.480829	221.430912
243.36	-0.000335	-0.000753	10.595080	-292.161388	7455.152441	221.756805
243.87	-0.000313	-0.000785	10.595069	-284.479228	7278.072179	221.528291
244.38	-0.000341	-0.000818	10.595062	-273.231114	7018.982263	221.373591
244.89	-0.000314	-0.000837	10.595063	-259.028690	6692.071151	221.396321
245.40	-0.000335	-0.000830	10.595062	-243.785191	6341.147951	221.374313
245.91	-0.000321	-0.000808	10.595060	-235.578884	6152.194714	221.329607
246.42	-0.000333	-0.000788	10.595065	-208.819531	5536.306129	221.427457
246.93	-0.000331	-0.000764	10.595077	-218.333015	5755.593513	221.704306
247.44	-0.000330	-0.000757	10.595082	-220.012334	5794.359199	221.807659
247.95	-0.000334	-0.000755	10.595114	-224.085843	5888.866989	222.510701
248.46	-0.000334	-0.000748	10.595078	-248.003641	6438.617278	221.719671
248.97	-0.000329	-0.000720	10.595079	-260.542584	6727.269721	221.729470
249.48	-0.000324	-0.000676	10.595077	-273.985281	7036.674432	221.689815
249.99	-0.000333	-0.000621	10.595083	-286.481387	7324.474809	221.827440
250.50	-0.000318	-0.000583	10.595076	-293.438363	7484.462560	221.675343
251.01	-0.000325	-0.000574	10.595070	-296.395306	7552.380018	221.531919
251.52	-0.000324	-0.000600	10.595076	-296.122612	7546.252033	221.674364
252.03	-0.000307	-0.000641	10.595068	-292.813964	7469.895098	221.490272
252.54	-0.000321	-0.000686	10.595072	-289.220145	7387.261126	221.580425
253.05	-0.000306	-0.000717	10.595077	-284.699677	7283.312550	221.686363
253.56	-0.000313	-0.000723	10.595079	-280.573720	7188.397377	221.746418
254.07	-0.000314	-0.000721	10.595086	-276.356819	7091.467076	221.881212
254.58	-0.000316	-0.000693	10.595073	-273.098715	7016.183682	221.611294
255.09	-0.000315	-0.000680	10.595070	-269.022169	6922.264786	221.536709
255.60	-0.000313	-0.000670	10.595076	-265.549462	6842.459488	221.665703
256.11	-0.000310	-0.000673	10.595071	-251.647017	6522.320713	221.561486
256.62	-0.000307	-0.000677	10.595069	-257.427981	6655.356280	221.523097
257.13	-0.000307	-0.000671	10.595075	-248.581787	6451.855804	221.652710
257.65	-0.000303	-0.000663	10.595070	-243.916025	6344.330712	221.537437
258.16	-0.000310	-0.000643	10.595067	-265.286177	6836.192533	221.468979
258.67	-0.000298	-0.000617	10.595066	-259.410972	6700.940500	221.462465
259.18	-0.000312	-0.000599	10.595073	-272.916919	7011.993735	221.606466
259.69	-0.000304	-0.000597	10.595081	-276.348389	7091.157881	221.771382
260.20	-0.000290	-0.000604	10.595076	-278.096163	7131.296655	221.681334
260.71	-0.000317	-0.000624	10.595073	-277.811389	7124.658228	221.602147
261.22	-0.000282	-0.000643	10.595073	-280.136501	7178.179141	221.599874
261.73	-0.000302	-0.000652	10.595068	-277.388116	7114.813552	221.505730
262.24	-0.000293	-0.000651	10.595069	-279.811937	7170.630288	221.525960
262.75	-0.000297	-0.000643	10.595075	-279.649500	7167.031722	221.660138
263.26	-0.000278	-0.000641	10.595072	-277.447687	7116.267071	221.584151
263.77	-0.000287	-0.000649	10.595075	-277.487237	7117.253809	221.656950
264.28	-0.000280	-0.000661	10.595083	-268.945659	6920.799966	221.819451
264.79	-0.000278	-0.000682	10.595075	-267.366634	6884.278859	221.654922
265.30	-0.000281	-0.000696	10.595101	-258.548112	6681.882571	222.230193
265.81	-0.000277	-0.000711	10.595097	-255.950797	6622.003220	222.144292
266.32	-0.000278	-0.000724	10.595073	-246.141109	6395.631592	221.613952
266.83	-0.000273	-0.000730	10.595072	-245.093187	6371.486761	221.592934
267.34	-0.000275	-0.000734	10.595072	-244.546153	6358.874926	221.574527
267.85	-0.000270	-0.000742	10.595078	-237.220771	6190.402535	221.722761
268.36	-0.000277	-0.000732	10.595079	-250.406751	6493.965300	221.747580
268.87	-0.000268	-0.000724	10.595070	-242.263602	6306.300252	221.544829
269.38	-0.000270	-0.000716	10.595068	-252.217430	6535.384412	221.497558
269.89	-0.000268	-0.000714	10.595068	-254.064554	6577.911074	221.503766
270.40	-0.000254	-0.000713	10.595075	-256.056577	6623.909333	221.639762
270.91	-0.000272	-0.000715	10.598321	-255.542063	6686.941554	293.064516
271.42	-0.000247	-0.000711	10.599226	-260.345278	6818.386781	312.979057
271.93	-0.000263	-0.000694	10.599821	-260.933499	6845.637313	326.056993
272.44	-0.000254	-0.000666	10.599901	-265.683620	6956.831465	327.819790
272.95	-0.000260	-0.000630	10.599903	-270.285667	7062.818308	327.866805
273.46	-0.000255	-0.000596	10.599915	-270.339934	7064.346184	328.132640
273.97	-0.000258	-0.000565	10.599916	-275.132619	7174.683508	328.143471
274.48	-0.000248	-0.000555	10.599916	-269.589157	7047.089790	328.157661
274.99	-0.000249	-0.000552	10.599919	-272.687118	7118.466730	328.217695
275.50	-0.000254	-0.000559	10.599919	-266.736548	6981.485678	328.216768
276.01	-0.000246	-0.000589	10.599916	-264.081174	6920.292500	328.152499
276.52	-0.000248	-0.000613	10.599907	-258.385032	6788.951686	327.944971
277.03	-0.000247	-0.000643	10.597502	-253.383311	6618.358902	275.046268
277.54	-0.000249	-0.000674	10.597092	-251.089089	6556.098781	266.033857
278.05	-0.000248	-0.000694	10.597090	-242.198828	6351.380995	265.969919
278.56	-0.000254	-0.000696	10.597995	-249.881240	6549.107804	285.887759
279.07	-0.000253	-0.000685	10.599874	-243.728544	6450.813318	327.228544
279.58	-0.000250	-0.000642	10.594890	-255.386263	6604.230089	217.586774
280.09	-0.000255	-0.000600	10.594912	-257.174835	6645.899650	218.061101
280.60	-0.000237	-0.000555	10.594908	-266.079768	6850.801103	217.978039
281.11	-0.000247	-0.000518	10.594910	-270.465926	6951.809857	218.017054
281.62	-0.000229	-0.000499	10.594898	-272.687635	7002.687591	217.764034
282.13	-0.000231	-0.000498	10.594887	-273.746751	7026.795973	217.504468
282.64	-0.000216	-0.000505	10.594894	-272.732143	7003.610598	217.667165
283.15	-0.000221	-0.000516	10.594895	-270.279631	6947.190025	217.700942
283.67	-0.000218	-0.000528	10.594913	-267.651287	6887.081318	218.077629
284.18	-0.000218	-0.000550	10.594916	-266.727317	6865.892088	218.154154
284.69	-0.000219	-0.000563	10.594910	-261.526310	6746.024015	218.018079
285.20	-0.000228	-0.000568	10.594903	-262.488196	6768.017766	217.876387
285.71	-0.000226	-0.000559	10.594914	-263.494527	6791.414457	218.097013
286.22	-0.000230	-0.000541	10.594900	-262.004192	6756.801602	217.805261
286.73	-0.000229	-0.000517	10.594705	-268.352647	6898.435348	213.507419
287.24	-0.000230	-0.000504	10.594873	-266.835773	6867.395692	217.206913
287.75	-0.000226	-0.000493	10.593772	-270.154611	6918.389607	192.973336
288.26	-0.000222	-0.000496	10.593959	-269.732567	6912.987936	197.088150
288.77	-0.000216	-0.000509	10.594050	-268.476292	6886.168766	199.091203
289.28	-0.000222	-0.000526	10.594580	-265.896678	6839.029135	210.769092
289.79	-0.000219	-0.000541	10.594580	-263.369914	6780.862580	210.767847
290.30	-0.000217	-0.000546	10.593408	-262.111551	6724.862268	184.980716
290.81	-0.000206	-0.000529	10.593410	-263.599221	6759.145958	185.017001
291.32	-0.000214	-0.000514	10.592956	-265.864730	6800.826828	175.029259
291.83	-0.000212	-0.000483	10.593666	-269.265634	6895.495820	190.655516
292.34	-0.000210	-0.000456	10.594653	-274.548621	7039.874561	212.372279
292.85	-0.000211	-0.000436	10.594371	-274.847975	7040.261341	206.167856
293.36	-0.000218	-0.000430	10.593632	-278.558304	7108.613483	189.895807
293.87	-0.000219	-0.000430	10.593306	-277.015501	7065.580223	182.723886
294.38	-0.000221	-0.000434	10.593657	-273.523146	6993.280686	190.444126
294.89	-0.000220	-0.000440	10.594001	-278.256540	7110.189694	198.025668
295.40	-0.000217	-0.000436	10.594519	-271.429312	6964.965109	209.411350
295.91	-0.000220	-0.000434	10.594752	-276.012847	7075.857348	214.544151
296.42	-0.000219	-0.000432	10.593209	-274.341909	7001.813390	180.604640
296.93	-0.000211	-0.000430	10.593018	-275.698402	7028.624478	176.393228
297.44	-0.000222	-0.000417	10.593643	-273.394997	6990.015954	190.143834
297.95	-0.000213	-0.000391	10.593473	-279.333735	7122.796286	186.397495
298.46	-0.000213	-0.000359	10.593257	-282.619358	7193.457856	181.654337
298.97	-0.000204	-0.000327	10.594742	-287.278630	7334.951911	214.315302
299.48	-0.000204	-0.000290	10.594775	-293.676272	7482.986225	215.042909
299.99	-0.000195	-0.000268	10.594690	-296.278313	7540.939229	213.187487
300.50	-0.000206	-0.000258	10.593453	-298.100659	7554.343727	185.957998
301.01	-0.000199	-0.000260	10.594801	-297.095297	7562.297757	215.621687
301.52	-0.000200	-0.000276	10.594843	-294.875997	7512.178069	216.544927
302.03	-0.000206	-0.000309	10.594796	-288.727883	7369.564848	215.509221
302.54	-0.000206	-0.000359	10.594843	-282.180644	7219.936948	216.546406
303.05	-0.000206	-0.000400	10.594896	-273.619557	7024.080209	217.706881
303.56	-0.000210	-0.000447	10.594897	-266.629557	6863.191768	217.724989
304.07	-0.000205	-0.000482	10.594885	-260.434091	6720.296392	217.459927
304.58	-0.000209	-0.000505	10.594914	-252.169614	6530.735926	218.113324
305.09	-0.000206	-0.000511	10.594918	-256.989988	6641.788086	218.198029
305.60	-0.000202	-0.000499	10.594917	-250.798125	6499.233936	218.179341
306.11	-0.000200	-0.000479	10.593651	-259.330550	6666.443829	190.321879
306.62	-0.000202	-0.000455	10.593103	-260.692664	6685.154891	178.260380
307.13	-0.000185	-0.000438	10.594476	-265.244467	6821.613240	208.477613
307.64	-0.000196	-0.000431	10.594691	-264.978675	6820.437831	213.192783
308.15	-0.000187	-0.000439	10.594191	-264.636707	6801.049880	202.207662
308.66	-0.000188	-0.000445	10.593919	-260.581642	6701.413475	196.207405
309.18	-0.000180	-0.000441	10.593956	-261.685637	6727.700432	197.040525
309.69	-0.000187	-0.000433	10.594030	-264.291654	6789.392688	198.664679
310.20	-0.000179	-0.000421	10.594269	-264.098920	6790.455269	203.910426
310.71	-0.000186	-0.000413	10.594555	-266.027991	6841.461232	210.205640
311.22	-0.000179	-0.000406	10.594575	-267.204244	6869.014837	210.660342
311.73	-0.000188	-0.000398	10.591716	-268.928475	6842.765896	147.759695
312.24	-0.000190	-0.000386	10.591512	-270.850776	6882.298862	143.259419
312.75	-0.000189	-0.000382	10.590757	-273.046174	6915.421122	126.647106
313.26	-0.000193	-0.000370	10.590249	-275.017458	6949.096752	115.483895
313.77	-0.000193	-0.000352	10.590116	-277.474056	7002.568269	112.547262
314.28	-0.000183	-0.000338	10.590093	-280.909500	7081.121596	112.042254
314.79	-0.000187	-0.000330	10.592947	-278.006228	7080.106948	174.826073
315.30	-0.000178	-0.000334	10.593578	-279.538897	7129.947570	188.714065
315.81	-0.000177	-0.000341	10.593703	-273.767248	6999.977658	191.472253
316.32	-0.000176	-0.000360	10.592579	-270.729498	6904.120349	166.738127
316.83	-0.000178	-0.000380	10.592253	-261.946252	6694.415607	159.567220
317.34	-0.000171	-0.000378	10.590273	-264.098065	6698.291698	116.013903
317.85	-0.000177	-0.000367	10.590142	-265.261964	6722.054072	113.123393
318.36	-0.000172	-0.000322	10.590100	-274.230197	6927.542779	112.210567
318.87	-0.000176	-0.000271	10.590093	-284.822981	7171.201227	112.035232
319.38	-0.000174	-0.000233	10.590084	-294.047575	7383.346050	111.842363
319.89	-0.000176	-0.000207	10.590092	-298.639794	7489.257111	112.032913
320.40	-0.000170	-0.000197	10.590140	-301.286477	7551.290574	113.089567
320.91	-0.000170	-0.000195	10.590106	-301.489409	7555.162642	112.327059
321.42	-0.000167	-0.000190	10.592249	-302.480504	7627.412702	159.483726
321.93	-0.000165	-0.000182	10.590110	-303.394504	7599.108280	112.413871
322.44	-0.000163	-0.000190	10.590109	-301.266313	7550.105320	112.401720
322.95	-0.000163	-0.000201	10.590128	-298.114685	7477.999220	112.824594
323.46	-0.000163	-0.000224	10.590093	-294.556298	7395.279936	112.055325
323.97	-0.000171	-0.000248	10.590094	-289.389431	7276.361408	112.075340
324.48	-0.000171	-0.000261	10.590116	-286.135410	7201.943261	112.541145
324.99	-0.000179	-0.000263	10.590081	-283.024358	7129.536300	111.786030
325.50	-0.000173	-0.000255	10.590087	-286.750253	7215.450392	111.924593
326.01	-0.000172	-0.000244	10.590118	-288.448980	7255.253319	112.591194
326.52	-0.000163	-0.000235	10.590085	-289.765737	7284.807958	111.869409
327.03	-0.000165	-0.000217	10.590083	-293.746765	7376.406658	111.828200
327.54	-0.000159	-0.000208	10.590106	-296.878968	7449.043790	112.338440
328.05	-0.000162	-0.000210	10.590083	-296.765621	7445.901461	111.829887
328.56	-0.000157	-0.000231	10.598131	-292.982933	7544.424898	288.874302
329.07	-0.000164	-0.000253	10.597638	-288.494244	7429.739722	278.040726
329.58	-0.000166	-0.000269	10.597787	-284.718507	7346.250129	281.309363
330.09	-0.000170	-0.000283	10.597965	-282.491334	7299.088652	285.227321
330.60	-0.000163	-0.000288	10.598142	-281.408103	7278.239651	289.125563
331.11	-0.000169	-0.000280	10.598281	-280.797260	7267.375110	292.175045
331.62	-0.000164	-0.000264	10.597735	-286.842117	7393.938806	280.168397
332.13	-0.000162	-0.000258	10.597763	-285.842746	7371.579760	280.784754
332.64	-0.000161	-0.000263	10.599861	-284.821435	7396.449621	326.934749
333.15	-0.000166	-0.000276	10.599905	-279.645470	7278.312029	327.899498
333.66	-0.000161	-0.000310	10.599897	-272.386802	7111.055100	327.742219
334.17	-0.000166	-0.000335	10.597589	-263.997783	6864.705061	276.958509
334.69	-0.000161	-0.000357	10.597974	-263.168939	6854.504275	285.428152
335.20	-0.000163	-0.000391	10.597842	-253.363429	6625.741791	282.525440
335.71	-0.000157	-0.000409	10.597153	-249.563778	6522.385298	267.368046
336.22	-0.000166	-0.000434	10.597243	-246.818905	6461.268293	269.341712
336.73	-0.000154	-0.000441	10.597674	-245.397086	6438.483070	278.827872
337.24	-0.000159	-0.000451	10.595160	-243.243210	6330.911237	223.510594
